IMUDataRawSeq,IMUDataRawTime,IMUDataRawOrienQx,IMUDataRawOrienQy,IMUDataRawOrienQz,IMUDataRawOrienQw,IMUDataRawOrienCovElems0,IMUDataRawOrienCovElems1,IMUDataRawOrienCovElems2,IMUDataRawOrienCovElems3,IMUDataRawOrienCovElems4,IMUDataRawOrienCovElems5,IMUDataRawOrienCovElems6,IMUDataRawOrienCovElems7,IMUDataRawOrienCovElems8,IMUDataRawAngVelX,IMUDataRawAngVelY,IMUDataRawAngVelZ,IMUDataRawAngVelCovElems0,IMUDataRawAngVelCovElems1,IMUDataRawAngVelCovElems2,IMUDataRawAngVelCovElems3,IMUDataRawAngVelCovElems4,IMUDataRawAngVelCovElems5,IMUDataRawAngVelCovElems6,IMUDataRawAngVelCovElems7,IMUDataRawAngVelCovElems8,IMUDataRawLinearAccX,IMUDataRawLinearAccY,IMUDataRawLinearAccZ,IMUDataRawLinearAccCovElems0,IMUDataRawLinearAccCovElems1,IMUDataRawLinearAccCovElems2,IMUDataRawLinearAccCovElems3,IMUDataRawLinearAccCovElems4,IMUDataRawLinearAccCovElems5,IMUDataRawLinearAccCovElems6,IMUDataRawLinearAccCovElems7,IMUDataRawLinearAccCovElems8
2588,384427892825717,-0.04508860036730766,0.01465349365025759,0.8040948510169983,0.5926076769828796,0,0,0,0,0,0,0,0,0,0.05000000074505806,-0.09000000357627869,0.009999999776482582,0,0,0,0,0,0,0,0,0,-0.07000000029802322,-0.05000000074505806,1.149999976158142,0,0,0,0,0,0,0,0,0
2589,384427916884651,-0.04508860036730766,0.01465349365025759,0.8040948510169983,0.5926076769828796,0,0,0,0,0,0,0,0,0,0.01999999955296516,0.05000000074505806,-0.05000000074505806,0,0,0,0,0,0,0,0,0,-0.07000000029802322,-0.02999999932944775,1.029999971389771,0,0,0,0,0,0,0,0,0
2590,384427940726145,-0.04805105924606323,0.01063285022974014,0.804158091545105,0.5923748016357422,0,0,0,0,0,0,0,0,0,-0.1099999994039536,-0.02999999932944775,-0.1099999994039536,0,0,0,0,0,0,0,0,0,-0.1400000005960464,-0.05000000074505806,1.129999995231628,0,0,0,0,0,0,0,0,0
2591,384427964498868,-0.04805105924606323,0.01063285022974014,0.804158091545105,0.5923748016357422,0,0,0,0,0,0,0,0,0,-0.05000000074505806,0.009999999776482582,0.07999999821186066,0,0,0,0,0,0,0,0,0,-0.07999999821186066,-0.01999999955296516,1.110000014305115,0,0,0,0,0,0,0,0,0
2592,384427988625780,-0.04805105924606323,0.01063285022974014,0.804158091545105,0.5923748016357422,0,0,0,0,0,0,0,0,0,-0,-0.05000000074505806,-0.03999999910593033,0,0,0,0,0,0,0,0,0,-0.05999999865889549,-0.02999999932944775,1.100000023841858,0,0,0,0,0,0,0,0,0
2593,384428013076872,-0.04403502494096756,0.007663615047931671,0.8042696118354797,0.5925812721252441,0,0,0,0,0,0,0,0,0,-0.02999999932944775,0.05000000074505806,-0.05999999865889549,0,0,0,0,0,0,0,0,0,-0.07000000029802322,-0.03999999910593033,1.129999995231628,0,0,0,0,0,0,0,0,0
2594,384428036849079,-0.04805105924606323,0.01063285022974014,0.804158091545105,0.5923748016357422,0,0,0,0,0,0,0,0,0,0.02999999932944775,0.05999999865889549,-0.01999999955296516,0,0,0,0,0,0,0,0,0,-0.07000000029802322,-0.03999999910593033,1.070000052452087,0,0,0,0,0,0,0,0,0
2595,384428060974248,-0.04805105924606323,0.01063285022974014,0.804158091545105,0.5923748016357422,0,0,0,0,0,0,0,0,0,-0.05000000074505806,-0.01999999955296516,-0.009999999776482582,0,0,0,0,0,0,0,0,0,-0.09000000357627869,-0.02999999932944775,1.059999942779541,0,0,0,0,0,0,0,0,0
2596,384428085099496,-0.04805105924606323,0.01063285022974014,0.804158091545105,0.5923748016357422,0,0,0,0,0,0,0,0,0,-0.1700000017881393,-0,0.01999999955296516,0,0,0,0,0,0,0,0,0,-0.1000000014901161,-0.01999999955296516,1.159999966621399,0,0,0,0,0,0,0,0,0
2597,384428108812217,-0.04403502494096756,0.007663615047931671,0.8042696118354797,0.5925812721252441,0,0,0,0,0,0,0,0,0,-0.05999999865889549,-0.02999999932944775,0.02999999932944775,0,0,0,0,0,0,0,0,0,-0.07000000029802322,-0.03999999910593033,1.159999966621399,0,0,0,0,0,0,0,0,0
2598,384428132982439,-0.04403502494096756,0.007663615047931671,0.8042696118354797,0.5925812721252441,0,0,0,0,0,0,0,0,0,0.02999999932944775,-0.009999999776482582,-0.02999999932944775,0,0,0,0,0,0,0,0,0,-0.05000000074505806,-0.05000000074505806,1.159999966621399,0,0,0,0,0,0,0,0,0
2599,384428157095681,-0.04403502494096756,0.007663615047931671,0.8042696118354797,0.5925812721252441,0,0,0,0,0,0,0,0,0,0.07000000029802322,0.03999999910593033,-0.09000000357627869,0,0,0,0,0,0,0,0,0,-0.05999999865889549,-0.05000000074505806,1.110000014305115,0,0,0,0,0,0,0,0,0
2600,384428180870891,-0.04403502494096756,0.007663615047931671,0.8042696118354797,0.5925812721252441,0,0,0,0,0,0,0,0,0,0.1000000014901161,-0.09000000357627869,-0.1800000071525574,0,0,0,0,0,0,0,0,0,-0.1400000005960464,-0.03999999910593033,1.070000052452087,0,0,0,0,0,0,0,0,0
2601,384428204645643,-0.04399615526199341,0.007883695885539055,0.8012966513633728,0.5965952277183533,0,0,0,0,0,0,0,0,0,0.07000000029802322,-0.09000000357627869,-0.05000000074505806,0,0,0,0,0,0,0,0,0,-0.1500000059604645,-0.07000000029802322,1.080000042915344,0,0,0,0,0,0,0,0,0
2602,384428228769255,-0.04403502494096756,0.007663615047931671,0.8042696118354797,0.5925812721252441,0,0,0,0,0,0,0,0,0,0.009999999776482582,0.01999999955296516,0.05999999865889549,0,0,0,0,0,0,0,0,0,-0.07000000029802322,-0.03999999910593033,1.080000042915344,0,0,0,0,0,0,0,0,0
2603,384428252868358,-0.04403502494096756,0.007663615047931671,0.8042696118354797,0.5925812721252441,0,0,0,0,0,0,0,0,0,0.05000000074505806,0.009999999776482582,-0.1099999994039536,0,0,0,0,0,0,0,0,0,-0.1099999994039536,-0.05000000074505806,1.059999942779541,0,0,0,0,0,0,0,0,0
2604,384428276998229,-0.04399615526199341,0.007883695885539055,0.8012966513633728,0.5965952277183533,0,0,0,0,0,0,0,0,0,0.009999999776482582,-0.009999999776482582,-0.1000000014901161,0,0,0,0,0,0,0,0,0,-0.1500000059604645,-0.03999999910593033,1.059999942779541,0,0,0,0,0,0,0,0,0
2605,384428301121949,-0.04799729585647583,0.01087297312915325,0.8011860847473145,0.5963881611824036,0,0,0,0,0,0,0,0,0,-0.05999999865889549,0.1400000005960464,-0.009999999776482582,0,0,0,0,0,0,0,0,0,-0.1299999952316284,-0.01999999955296516,1.139999985694885,0,0,0,0,0,0,0,0,0
2606,384428324892008,-0.04799729585647583,0.01087297312915325,0.8011860847473145,0.5963881611824036,0,0,0,0,0,0,0,0,0,0,0.2899999916553497,-0.009999999776482582,0,0,0,0,0,0,0,0,0,-0.09000000357627869,-0.03999999910593033,1.120000004768372,0,0,0,0,0,0,0,0,0
2607,384428349016550,-0.05199722945690155,0.01386197656393051,0.8010555505752563,0.5961662530899048,0,0,0,0,0,0,0,0,0,0.009999999776482582,0.1099999994039536,-0.05000000074505806,0,0,0,0,0,0,0,0,0,-0.09000000357627869,-0.03999999910593033,1.019999980926514,0,0,0,0,0,0,0,0,0
2608,384428372793300,-0.05199722945690155,0.01386197656393051,0.8010555505752563,0.5961662530899048,0,0,0,0,0,0,0,0,0,-0.1500000059604645,-0.07999999821186066,-0.03999999910593033,0,0,0,0,0,0,0,0,0,-0.119999997317791,-0.05999999865889549,1.100000023841858,0,0,0,0,0,0,0,0,0
2609,384428396616218,-0.05199722945690155,0.01386197656393051,0.8010555505752563,0.5961662530899048,0,0,0,0,0,0,0,0,0,-0.2099999934434891,0.05999999865889549,0.05000000074505806,0,0,0,0,0,0,0,0,0,-0.05999999865889549,-0.01999999955296516,1.179999947547913,0,0,0,0,0,0,0,0,0
2610,384428421017005,-0.04799729585647583,0.01087297312915325,0.8011860847473145,0.5963881611824036,0,0,0,0,0,0,0,0,0,-0.03999999910593033,-0.02999999932944775,-0.02999999932944775,0,0,0,0,0,0,0,0,0,-0.03999999910593033,-0.009999999776482582,1.169999957084656,0,0,0,0,0,0,0,0,0
2611,384428445144168,-0.04799729585647583,0.01087297312915325,0.8011860847473145,0.5963881611824036,0,0,0,0,0,0,0,0,0,-0,-0.05999999865889549,-0.1099999994039536,0,0,0,0,0,0,0,0,0,-0.09000000357627869,-0.02999999932944775,1.120000004768372,0,0,0,0,0,0,0,0,0
2612,384428468617964,-0.04799729585647583,0.01087297312915325,0.8011860847473145,0.5963881611824036,0,0,0,0,0,0,0,0,0,-0.05999999865889549,0.05000000074505806,-0.01999999955296516,0,0,0,0,0,0,0,0,0,-0.09000000357627869,-0.01999999955296516,1.129999995231628,0,0,0,0,0,0,0,0,0
2613,384428492672832,-0.04799729585647583,0.01087297312915325,0.8011860847473145,0.5963881611824036,0,0,0,0,0,0,0,0,0,-0.02999999932944775,0.009999999776482582,0.01999999955296516,0,0,0,0,0,0,0,0,0,-0.07999999821186066,-0.009999999776482582,1.110000014305115,0,0,0,0,0,0,0,0,0
2614,384428516814758,-0.04799729585647583,0.01087297312915325,0.8011860847473145,0.5963881611824036,0,0,0,0,0,0,0,0,0,0.01999999955296516,-0.07999999821186066,-0.02999999932944775,0,0,0,0,0,0,0,0,0,-0.1000000014901161,-0.009999999776482582,1.120000004768372,0,0,0,0,0,0,0,0,0
2615,384428540913586,-0.04799729585647583,0.01087297312915325,0.8011860847473145,0.5963881611824036,0,0,0,0,0,0,0,0,0,0.01999999955296516,-0.05000000074505806,0.009999999776482582,0,0,0,0,0,0,0,0,0,-0.1299999952316284,-0.03999999910593033,1.080000042915344,0,0,0,0,0,0,0,0,0
2616,384428564688644,-0.04799729585647583,0.01087297312915325,0.8011860847473145,0.5963881611824036,0,0,0,0,0,0,0,0,0,-0.07999999821186066,-0.2000000029802322,0.1299999952316284,0,0,0,0,0,0,0,0,0,-0.1099999994039536,-0.01999999955296516,1.059999942779541,0,0,0,0,0,0,0,0,0
2617,384428589128912,-0.04403502494096756,0.007663615047931671,0.8042696118354797,0.5925812721252441,0,0,0,0,0,0,0,0,0,-0.05999999865889549,-0.2199999988079071,0.1000000014901161,0,0,0,0,0,0,0,0,0,-0.09000000357627869,-0.02999999932944775,1.149999976158142,0,0,0,0,0,0,0,0,0
2618,384428612612143,-0.04403502494096756,0.007663615047931671,0.8042696118354797,0.5925812721252441,0,0,0,0,0,0,0,0,0,0.07999999821186066,-0.009999999776482582,0.05000000074505806,0,0,0,0,0,0,0,0,0,-0.05999999865889549,-0.01999999955296516,1.110000014305115,0,0,0,0,0,0,0,0,0
2619,384428637035735,-0.04403502494096756,0.007663615047931671,0.8042696118354797,0.5925812721252441,0,0,0,0,0,0,0,0,0,0.1400000005960464,0.01999999955296516,-0.1099999994039536,0,0,0,0,0,0,0,0,0,-0.119999997317791,-0.02999999932944775,1.100000023841858,0,0,0,0,0,0,0,0,0
2620,384428661125892,-0.04101264476776123,0.01189006585627794,0.801247239112854,0.5968077778816223,0,0,0,0,0,0,0,0,0,0.1400000005960464,-0.03999999910593033,-0.05000000074505806,0,0,0,0,0,0,0,0,0,-0.1800000071525574,-0.05999999865889549,1.019999980926514,0,0,0,0,0,0,0,0,0
2621,384428684611127,-0.04101264476776123,0.01189006585627794,0.801247239112854,0.5968077778816223,0,0,0,0,0,0,0,0,0,-0.07000000029802322,-0.07999999821186066,0.1299999952316284,0,0,0,0,0,0,0,0,0,-0.119999997317791,-0.02999999932944775,1.070000052452087,0,0,0,0,0,0,0,0,0
2622,384428708713589,-0.04403502494096756,0.007663615047931671,0.8042696118354797,0.5925812721252441,0,0,0,0,0,0,0,0,0,-0.03999999910593033,-0.1000000014901161,0.119999997317791,0,0,0,0,0,0,0,0,0,-0.07999999821186066,-0.009999999776482582,1.129999995231628,0,0,0,0,0,0,0,0,0
2623,384428733200713,-0.0410715788602829,0.0116848535835743,0.8042213320732117,0.5927941203117371,0,0,0,0,0,0,0,0,0,0.05000000074505806,-0.01999999955296516,0.05000000074505806,0,0,0,0,0,0,0,0,0,-0.1099999994039536,-0.03999999910593033,1.120000004768372,0,0,0,0,0,0,0,0,0
2624,384428756610893,-0.0410715788602829,0.0116848535835743,0.8042213320732117,0.5927941203117371,0,0,0,0,0,0,0,0,0,0.05000000074505806,0.03999999910593033,0.119999997317791,0,0,0,0,0,0,0,0,0,-0.1099999994039536,-0.05999999865889549,1.080000042915344,0,0,0,0,0,0,0,0,0
2625,384428781057846,-0.04112949222326279,0.01147934980690479,0.8071751594543457,0.588765561580658,0,0,0,0,0,0,0,0,0,-0.05000000074505806,0.09000000357627869,0.1899999976158142,0,0,0,0,0,0,0,0,0,-0.05999999865889549,-0.03999999910593033,1.120000004768372,0,0,0,0,0,0,0,0,0
2626,384428804836099,-0.04112949222326279,0.01147934980690479,0.8071751594543457,0.588765561580658,0,0,0,0,0,0,0,0,0,-0.009999999776482582,0.07000000029802322,0.1500000059604645,0,0,0,0,0,0,0,0,0,-0.03999999910593033,-0.05000000074505806,1.139999985694885,0,0,0,0,0,0,0,0,0
2627,384428828957926,-0.04112949222326279,0.01147934980690479,0.8071751594543457,0.588765561580658,0,0,0,0,0,0,0,0,0,0.05999999865889549,-0.03999999910593033,0.03999999910593033,0,0,0,0,0,0,0,0,0,-0.07000000029802322,-0.05000000074505806,1.070000052452087,0,0,0,0,0,0,0,0,0
2628,384428852736302,-0.04112949222326279,0.01147934980690479,0.8071751594543457,0.588765561580658,0,0,0,0,0,0,0,0,0,-0.07000000029802322,-0.07000000029802322,0.01999999955296516,0,0,0,0,0,0,0,0,0,-0.09000000357627869,-0.07000000029802322,1.149999976158142,0,0,0,0,0,0,0,0,0
2629,384428876507370,-0.04410945624113083,0.007222890853881836,0.8101550936698914,0.5845091342926025,0,0,0,0,0,0,0,0,0,-0.07000000029802322,0.07000000029802322,0.119999997317791,0,0,0,0,0,0,0,0,0,-0.03999999910593033,-0.05000000074505806,1.149999976158142,0,0,0,0,0,0,0,0,0
2630,384428901306264,-0.04410945624113083,0.007222890853881836,0.8101550936698914,0.5845091342926025,0,0,0,0,0,0,0,0,0,0.02999999932944775,-0.07000000029802322,-0.03999999910593033,0,0,0,0,0,0,0,0,0,-0.03999999910593033,-0.03999999910593033,1.090000033378601,0,0,0,0,0,0,0,0,0
2631,384428924759755,-0.04006283357739449,0.004293788224458694,0.8102484941482544,0.5846998691558838,0,0,0,0,0,0,0,0,0,0.03999999910593033,-0.1800000071525574,-0.1500000059604645,0,0,0,0,0,0,0,0,0,-0.1099999994039536,-0.07000000029802322,1.129999995231628,0,0,0,0,0,0,0,0,0
2632,384428948854623,-0.04006283357739449,0.004293788224458694,0.8102484941482544,0.5846998691558838,0,0,0,0,0,0,0,0,0,0.01999999955296516,0.01999999955296516,-0.03999999910593033,0,0,0,0,0,0,0,0,0,-0.07999999821186066,-0.07000000029802322,1.129999995231628,0,0,0,0,0,0,0,0,0
2633,384428972979077,-0.04006283357739449,0.004293788224458694,0.8102484941482544,0.5846998691558838,0,0,0,0,0,0,0,0,0,0.05999999865889549,0.02999999932944775,-0.05999999865889549,0,0,0,0,0,0,0,0,0,-0.05999999865889549,-0.03999999910593033,1.110000014305115,0,0,0,0,0,0,0,0,0
2634,384428997430257,-0.03709665313363075,0.008530545979738235,0.8072823286056519,0.5889366865158081,0,0,0,0,0,0,0,0,0,0.119999997317791,-0.07000000029802322,-0.1500000059604645,0,0,0,0,0,0,0,0,0,-0.1099999994039536,-0.03999999910593033,1.090000033378601,0,0,0,0,0,0,0,0,0
2635,384429021209096,-0.03709665313363075,0.008530545979738235,0.8072823286056519,0.5889366865158081,0,0,0,0,0,0,0,0,0,0.07000000029802322,-0.05000000074505806,-0.07000000029802322,0,0,0,0,0,0,0,0,0,-0.1299999952316284,-0.05000000074505806,1.090000033378601,0,0,0,0,0,0,0,0,0
2636,384429044652841,-0.03709665313363075,0.008530545979738235,0.8072823286056519,0.5889366865158081,0,0,0,0,0,0,0,0,0,0,-0.05999999865889549,0.05000000074505806,0,0,0,0,0,0,0,0,0,-0.07999999821186066,-0.05000000074505806,1.080000042915344,0,0,0,0,0,0,0,0,0
2637,384429068778423,-0.03709665313363075,0.008530545979738235,0.8072823286056519,0.5889366865158081,0,0,0,0,0,0,0,0,0,-0.07000000029802322,-0.1899999976158142,0.01999999955296516,0,0,0,0,0,0,0,0,0,-0.03999999910593033,-0.01999999955296516,1.139999985694885,0,0,0,0,0,0,0,0,0
2638,384429093229555,-0.0330628901720047,0.00558153074234724,0.8073693513870239,0.5890929698944092,0,0,0,0,0,0,0,0,0,0.009999999776482582,-0.1400000005960464,-0.07999999821186066,0,0,0,0,0,0,0,0,0,-0.05999999865889549,-0.01999999955296516,1.159999966621399,0,0,0,0,0,0,0,0,0
2639,384429117329046,-0.03303457051515579,0.00574677437543869,0.8044137954711914,0.5931224822998047,0,0,0,0,0,0,0,0,0,-0.009999999776482582,-0,-0.09000000357627869,0,0,0,0,0,0,0,0,0,-0.1099999994039536,-0.03999999910593033,1.090000033378601,0,0,0,0,0,0,0,0,0
2640,384429140776641,-0.03599976003170013,0.001724649220705032,0.8044324517250061,0.5929498672485352,0,0,0,0,0,0,0,0,0,-0.05999999865889549,-0.05999999865889549,0.07999999821186066,0,0,0,0,0,0,0,0,0,-0.07999999821186066,-0.05999999865889549,1.120000004768372,0,0,0,0,0,0,0,0,0
2641,384429164900651,-0.03600793331861496,0.001544630154967308,0.8073871731758118,0.5889203548431396,0,0,0,0,0,0,0,0,0,-0.01999999955296516,-0.07000000029802322,0.1099999994039536,0,0,0,0,0,0,0,0,0,0.009999999776482582,-0.03999999910593033,1.120000004768372,0,0,0,0,0,0,0,0,0
2642,384429189001784,-0.03600793331861496,0.001544630154967308,0.8073871731758118,0.5889203548431396,0,0,0,0,0,0,0,0,0,0.03999999910593033,-0.01999999955296516,-0.1099999994039536,0,0,0,0,0,0,0,0,0,-0.02999999932944775,-0.07000000029802322,1.090000033378601,0,0,0,0,0,0,0,0,0
2643,384429212774229,-0.03600793331861496,0.001544630154967308,0.8073871731758118,0.5889203548431396,0,0,0,0,0,0,0,0,0,0,0.09000000357627869,-0.1299999952316284,0,0,0,0,0,0,0,0,0,-0.07999999821186066,-0.07000000029802322,1.090000033378601,0,0,0,0,0,0,0,0,0
2644,384429236900461,-0.03599976003170013,0.001724649220705032,0.8044324517250061,0.5929498672485352,0,0,0,0,0,0,0,0,0,-0.05000000074505806,0.1099999994039536,-0.03999999910593033,0,0,0,0,0,0,0,0,0,-0.05999999865889549,-0.07000000029802322,1.120000004768372,0,0,0,0,0,0,0,0,0
2645,384429260675980,-0.03599976003170013,0.001724649220705032,0.8044324517250061,0.5929498672485352,0,0,0,0,0,0,0,0,0,0.009999999776482582,-0.07000000029802322,-0.07000000029802322,0,0,0,0,0,0,0,0,0,-0.01999999955296516,-0.03999999910593033,1.090000033378601,0,0,0,0,0,0,0,0,0
2646,384429285479991,-0.03599976003170013,0.001724649220705032,0.8044324517250061,0.5929498672485352,0,0,0,0,0,0,0,0,0,0.05000000074505806,-0.1299999952316284,-0.2199999988079071,0,0,0,0,0,0,0,0,0,-0.07000000029802322,-0.05999999865889549,1.070000052452087,0,0,0,0,0,0,0,0,0
2647,384429308899830,-0.0319807231426239,-0.001244934275746346,0.8044836521148682,0.5931119322776794,0,0,0,0,0,0,0,0,0,-0.09000000357627869,-0.05999999865889549,-0.1500000059604645,0,0,0,0,0,0,0,0,0,-0.07999999821186066,-0.05999999865889549,1.139999985694885,0,0,0,0,0,0,0,0,0
2648,384429332359662,-0.0319807231426239,-0.001244934275746346,0.8044836521148682,0.5931119322776794,0,0,0,0,0,0,0,0,0,-0.01999999955296516,0.05000000074505806,-0.07999999821186066,0,0,0,0,0,0,0,0,0,-0.02999999932944775,-0.03999999910593033,1.159999966621399,0,0,0,0,0,0,0,0,0
2649,384429357146479,-0.0319865494966507,-0.001085015013813972,0.8015080094337463,0.5971269011497498,0,0,0,0,0,0,0,0,0,0.1099999994039536,0,-0.2199999988079071,0,0,0,0,0,0,0,0,0,-0.05000000074505806,-0.01999999955296516,1.080000042915344,0,0,0,0,0,0,0,0,0
2650,384429381272227,-0.0319865494966507,-0.001085015013813972,0.8015080094337463,0.5971269011497498,0,0,0,0,0,0,0,0,0,0.1099999994039536,0.009999999776482582,-0.2099999934434891,0,0,0,0,0,0,0,0,0,-0.1000000014901161,-0.05999999865889549,1.090000033378601,0,0,0,0,0,0,0,0,0
2651,384429404696868,-0.03599068522453308,0.001904627308249474,0.8014577031135559,0.5969645977020264,0,0,0,0,0,0,0,0,0,-0.05000000074505806,0.1000000014901161,-0.05000000074505806,0,0,0,0,0,0,0,0,0,-0.05999999865889549,-0.02999999932944775,1.100000023841858,0,0,0,0,0,0,0,0,0
2652,384429429147289,-0.03599068522453308,0.001904627308249474,0.8014577031135559,0.5969645977020264,0,0,0,0,0,0,0,0,0,-0.009999999776482582,-0.1099999994039536,-0.05999999865889549,0,0,0,0,0,0,0,0,0,-0.05999999865889549,-0.01999999955296516,1.120000004768372,0,0,0,0,0,0,0,0,0
2653,384429452920948,-0.0319865494966507,-0.001085015013813972,0.8015080094337463,0.5971269011497498,0,0,0,0,0,0,0,0,0,0.09000000357627869,-0.1899999976158142,-0.09000000357627869,0,0,0,0,0,0,0,0,0,-0.05000000074505806,-0.01999999955296516,1.100000023841858,0,0,0,0,0,0,0,0,0
2654,384429477045101,-0.02898555435240269,0.003067487850785255,0.7985070943832397,0.6012794375419617,0,0,0,0,0,0,0,0,0,0.03999999910593033,0.07999999821186066,-0.1500000059604645,0,0,0,0,0,0,0,0,0,-0.07000000029802322,-0.01999999955296516,1.129999995231628,0,0,0,0,0,0,0,0,0
2655,384429501170022,-0.0329754538834095,0.006076826713979244,0.7984424233436584,0.6011368632316589,0,0,0,0,0,0,0,0,0,0.01999999955296516,0.1000000014901161,-0.119999997317791,0,0,0,0,0,0,0,0,0,-0.07999999821186066,-0.03999999910593033,1.059999942779541,0,0,0,0,0,0,0,0,0
2656,384429525272608,-0.02898555435240269,0.003067487850785255,0.7985070943832397,0.6012794375419617,0,0,0,0,0,0,0,0,0,-0.009999999776482582,-0.239999994635582,-0.07000000029802322,0,0,0,0,0,0,0,0,0,-0.07999999821186066,-0.01999999955296516,1.120000004768372,0,0,0,0,0,0,0,0,0
2657,384429549396721,-0.02898555435240269,0.003067487850785255,0.7985070943832397,0.6012794375419617,0,0,0,0,0,0,0,0,0,0.05000000074505806,-0.1099999994039536,-0.03999999910593033,0,0,0,0,0,0,0,0,0,-0.07999999821186066,-0.05000000074505806,1.110000014305115,0,0,0,0,0,0,0,0,0
2658,384429572842887,-0.02898555435240269,0.003067487850785255,0.7985070943832397,0.6012794375419617,0,0,0,0,0,0,0,0,0,-0.03999999910593033,-0.009999999776482582,0,0,0,0,0,0,0,0,0,0,-0.02999999932944775,-0.01999999955296516,1.090000033378601,0,0,0,0,0,0,0,0,0
2659,384429596944804,-0.02898555435240269,0.003067487850785255,0.7985070943832397,0.6012794375419617,0,0,0,0,0,0,0,0,0,-0.03999999910593033,-0.03999999910593033,-0.1000000014901161,0,0,0,0,0,0,0,0,0,-0.05999999865889549,-0,1.159999966621399,0,0,0,0,0,0,0,0,0
2660,384429621069819,-0.02898555435240269,0.003067487850785255,0.7985070943832397,0.6012794375419617,0,0,0,0,0,0,0,0,0,0.05999999865889549,-0.03999999910593033,-0.1000000014901161,0,0,0,0,0,0,0,0,0,-0.1000000014901161,-0.02999999932944775,1.120000004768372,0,0,0,0,0,0,0,0,0
2661,384429645190907,-0.02499492652714252,5.806796252727509e-05,0.7985517978668213,0.601406991481781,0,0,0,0,0,0,0,0,0,0.009999999776482582,-0.1800000071525574,0.07000000029802322,0,0,0,0,0,0,0,0,0,-0.05000000074505806,-0.03999999910593033,1.070000052452087,0,0,0,0,0,0,0,0,0
2662,384429668966128,-0.02499492652714252,5.806796252727509e-05,0.7985517978668213,0.601406991481781,0,0,0,0,0,0,0,0,0,-0.05000000074505806,-0.1299999952316284,0.01999999955296516,0,0,0,0,0,0,0,0,0,-0.009999999776482582,-0,1.139999985694885,0,0,0,0,0,0,0,0,0
2663,384429693065062,-0.02499492652714252,5.806796252727509e-05,0.7985517978668213,0.601406991481781,0,0,0,0,0,0,0,0,0,0.05000000074505806,0.1599999964237213,-0.1099999994039536,0,0,0,0,0,0,0,0,0,-0.09000000357627869,-0.03999999910593033,1.169999957084656,0,0,0,0,0,0,0,0,0
2664,384429717188495,-0.02898555435240269,0.003067487850785255,0.7985070943832397,0.6012794375419617,0,0,0,0,0,0,0,0,0,0.119999997317791,0.1500000059604645,0.05999999865889549,0,0,0,0,0,0,0,0,0,-0.07999999821186066,-0.07000000029802322,1.019999980926514,0,0,0,0,0,0,0,0,0
2665,384429741315987,-0.02499492652714252,5.806796252727509e-05,0.7985517978668213,0.601406991481781,0,0,0,0,0,0,0,0,0,-0.03999999910593033,-0.2000000029802322,0.1000000014901161,0,0,0,0,0,0,0,0,0,-0.01999999955296516,-0.03999999910593033,1.090000033378601,0,0,0,0,0,0,0,0,0
2666,384429765090695,-0.02499492652714252,5.806796252727509e-05,0.7985517978668213,0.601406991481781,0,0,0,0,0,0,0,0,0,-0.05000000074505806,-0.1500000059604645,-0.07000000029802322,0,0,0,0,0,0,0,0,0,-0.05000000074505806,-0.02999999932944775,1.110000014305115,0,0,0,0,0,0,0,0,0
2667,384429789215779,-0.02499492652714252,5.806796252727509e-05,0.7985517978668213,0.601406991481781,0,0,0,0,0,0,0,0,0,-0.01999999955296516,0.07000000029802322,-0.07000000029802322,0,0,0,0,0,0,0,0,0,-0.119999997317791,-0.03999999910593033,1.110000014305115,0,0,0,0,0,0,0,0,0
2668,384429812637883,-0.02898555435240269,0.003067487850785255,0.7985070943832397,0.6012794375419617,0,0,0,0,0,0,0,0,0,0.03999999910593033,0.1500000059604645,0.07999999821186066,0,0,0,0,0,0,0,0,0,-0.09000000357627869,-0.05000000074505806,1.049999952316284,0,0,0,0,0,0,0,0,0
2669,384429836763509,-0.02898555435240269,0.003067487850785255,0.7985070943832397,0.6012794375419617,0,0,0,0,0,0,0,0,0,-0.07999999821186066,0.009999999776482582,0.05999999865889549,0,0,0,0,0,0,0,0,0,-0.05000000074505806,-0.01999999955296516,1.039999961853027,0,0,0,0,0,0,0,0,0
2670,384429861214195,-0.02898555435240269,0.003067487850785255,0.7985070943832397,0.6012794375419617,0,0,0,0,0,0,0,0,0,-0.1000000014901161,0.01999999955296516,-0.07000000029802322,0,0,0,0,0,0,0,0,0,-0.1099999994039536,-0.02999999932944775,1.070000052452087,0,0,0,0,0,0,0,0,0
2671,384429884663131,-0.03596983850002289,0.002264430746436119,0.7954480051994324,0.6049491763114929,0,0,0,0,0,0,0,0,0,-0.09000000357627869,0.1400000005960464,0.07000000029802322,0,0,0,0,0,0,0,0,0,-0.1099999994039536,-0.03999999910593033,1.120000004768372,0,0,0,0,0,0,0,0,0
2672,384429909045802,-0.0359807088971138,0.002084555104374886,0.7984628081321716,0.6009644865989685,0,0,0,0,0,0,0,0,0,-0.03999999910593033,0.1899999976158142,0.2099999934434891,0,0,0,0,0,0,0,0,0,-0.07000000029802322,-0.03999999910593033,1.100000023841858,0,0,0,0,0,0,0,0,0
2673,384429932899837,-0.0359807088971138,0.002084555104374886,0.7984628081321716,0.6009644865989685,0,0,0,0,0,0,0,0,0,-0.01999999955296516,0,0.2000000029802322,0,0,0,0,0,0,0,0,0,-0.03999999910593033,-0.01999999955296516,1.049999952316284,0,0,0,0,0,0,0,0,0
2674,384429957337886,-0.03599068522453308,0.001904627308249474,0.8014577031135559,0.5969645977020264,0,0,0,0,0,0,0,0,0,-0.05000000074505806,-0.01999999955296516,0.1500000059604645,0,0,0,0,0,0,0,0,0,-0.05999999865889549,-0.05000000074505806,1.139999985694885,0,0,0,0,0,0,0,0,0
2675,384429980737221,-0.03599068522453308,0.001904627308249474,0.8014577031135559,0.5969645977020264,0,0,0,0,0,0,0,0,0,-0.05999999865889549,0.1599999964237213,0.1899999976158142,0,0,0,0,0,0,0,0,0,-0.03999999910593033,-0.03999999910593033,1.110000014305115,0,0,0,0,0,0,0,0,0
2676,384430004887357,-0.03599068522453308,0.001904627308249474,0.8014577031135559,0.5969645977020264,0,0,0,0,0,0,0,0,0,-0.03999999910593033,0.07000000029802322,0.1299999952316284,0,0,0,0,0,0,0,0,0,-0.05000000074505806,-0.02999999932944775,1.110000014305115,0,0,0,0,0,0,0,0,0
2677,384430028661317,-0.04001789540052414,0.004694193601608276,0.80436110496521,0.5927729606628418,0,0,0,0,0,0,0,0,0,0,0.05999999865889549,0.119999997317791,0,0,0,0,0,0,0,0,0,-0.05999999865889549,-0.03999999910593033,1.110000014305115,0,0,0,0,0,0,0,0,0
2678,384430052783106,-0.04001789540052414,0.004694193601608276,0.80436110496521,0.5927729606628418,0,0,0,0,0,0,0,0,0,-0,0.07000000029802322,0.1400000005960464,0,0,0,0,0,0,0,0,0,-0.07000000029802322,-0.03999999910593033,1.090000033378601,0,0,0,0,0,0,0,0,0
2679,384430076909064,-0.04001789540052414,0.004694193601608276,0.80436110496521,0.5927729606628418,0,0,0,0,0,0,0,0,0,-0.05000000074505806,-0.009999999776482582,0.1500000059604645,0,0,0,0,0,0,0,0,0,-0.05999999865889549,-0.03999999910593033,1.149999976158142,0,0,0,0,0,0,0,0,0
2680,384430101357001,-0.04001789540052414,0.004694193601608276,0.80436110496521,0.5927729606628418,0,0,0,0,0,0,0,0,0,0.02999999932944775,0.03999999910593033,0.1400000005960464,0,0,0,0,0,0,0,0,0,-0.02999999932944775,-0.03999999910593033,1.159999966621399,0,0,0,0,0,0,0,0,0
2681,384430125133808,-0.04001789540052414,0.004694193601608276,0.80436110496521,0.5927729606628418,0,0,0,0,0,0,0,0,0,0.1099999994039536,0.09000000357627869,-0,0,0,0,0,0,0,0,0,0,-0.02999999932944775,-0.01999999955296516,1.110000014305115,0,0,0,0,0,0,0,0,0
2682,384430149255860,-0.03705354034900665,0.008715921081602573,0.8043275475502014,0.5929657220840454,0,0,0,0,0,0,0,0,0,0.09000000357627869,0.02999999932944775,-0.09000000357627869,0,0,0,0,0,0,0,0,0,-0.1000000014901161,-0.05000000074505806,1.129999995231628,0,0,0,0,0,0,0,0,0
2683,384430173031914,-0.03705354034900665,0.008715921081602573,0.8043275475502014,0.5929657220840454,0,0,0,0,0,0,0,0,0,0.1000000014901161,-0.02999999932944775,0.05000000074505806,0,0,0,0,0,0,0,0,0,-0.07999999821186066,-0.05000000074505806,1.120000004768372,0,0,0,0,0,0,0,0,0
2684,384430197122796,-0.03705354034900665,0.008715921081602573,0.8043275475502014,0.5929657220840454,0,0,0,0,0,0,0,0,0,0.03999999910593033,-0.02999999932944775,0.07999999821186066,0,0,0,0,0,0,0,0,0,-0.05999999865889549,-0.03999999910593033,1.080000042915344,0,0,0,0,0,0,0,0,0
2685,384430220231337,-0.03705354034900665,0.008715921081602573,0.8043275475502014,0.5929657220840454,0,0,0,0,0,0,0,0,0,0.01999999955296516,-0.05999999865889549,0,0,0,0,0,0,0,0,0,0,-0.07999999821186066,-0.03999999910593033,1.110000014305115,0,0,0,0,0,0,0,0,0
2686,384430245028044,-0.03705354034900665,0.008715921081602573,0.8043275475502014,0.5929657220840454,0,0,0,0,0,0,0,0,0,0.02999999932944775,0.01999999955296516,0.03999999910593033,0,0,0,0,0,0,0,0,0,-0.09000000357627869,-0.07000000029802322,1.110000014305115,0,0,0,0,0,0,0,0,0
2687,384430269154998,-0.0330628901720047,0.00558153074234724,0.8073693513870239,0.5890929698944092,0,0,0,0,0,0,0,0,0,-0.02999999932944775,-0.05000000074505806,0.1000000014901161,0,0,0,0,0,0,0,0,0,-0.02999999932944775,-0.05000000074505806,1.120000004768372,0,0,0,0,0,0,0,0,0
2688,384430293279869,-0.0330628901720047,0.00558153074234724,0.8073693513870239,0.5890929698944092,0,0,0,0,0,0,0,0,0,-0,-0.1299999952316284,-0.01999999955296516,0,0,0,0,0,0,0,0,0,-0.05000000074505806,-0.05000000074505806,1.110000014305115,0,0,0,0,0,0,0,0,0
2689,384430317054115,-0.0330628901720047,0.00558153074234724,0.8073693513870239,0.5890929698944092,0,0,0,0,0,0,0,0,0,-0.03999999910593033,-0.1000000014901161,-0.07999999821186066,0,0,0,0,0,0,0,0,0,-0.1000000014901161,-0.05000000074505806,1.120000004768372,0,0,0,0,0,0,0,0,0
2690,384430340829330,-0.0330628901720047,0.00558153074234724,0.8073693513870239,0.5890929698944092,0,0,0,0,0,0,0,0,0,0.03999999910593033,-0.009999999776482582,0.01999999955296516,0,0,0,0,0,0,0,0,0,-0.1099999994039536,-0.05999999865889549,1.139999985694885,0,0,0,0,0,0,0,0,0
2691,384430364953615,-0.0330628901720047,0.00558153074234724,0.8073693513870239,0.5890929698944092,0,0,0,0,0,0,0,0,0,0.05999999865889549,-0.05999999865889549,0.119999997317791,0,0,0,0,0,0,0,0,0,-0.03999999910593033,-0.05000000074505806,1.059999942779541,0,0,0,0,0,0,0,0,0
2692,384430389401432,-0.0330628901720047,0.00558153074234724,0.8073693513870239,0.5890929698944092,0,0,0,0,0,0,0,0,0,0,-0.1099999994039536,0.02999999932944775,0,0,0,0,0,0,0,0,0,-0.05000000074505806,-0.05000000074505806,1.110000014305115,0,0,0,0,0,0,0,0,0
2693,384430412825159,-0.0330628901720047,0.00558153074234724,0.8073693513870239,0.5890929698944092,0,0,0,0,0,0,0,0,0,0.009999999776482582,0.02999999932944775,0.02999999932944775,0,0,0,0,0,0,0,0,0,-0.07000000029802322,-0.07000000029802322,1.110000014305115,0,0,0,0,0,0,0,0,0
2694,384430436950539,-0.0330628901720047,0.00558153074234724,0.8073693513870239,0.5890929698944092,0,0,0,0,0,0,0,0,0,0.009999999776482582,0.09000000357627869,0.07000000029802322,0,0,0,0,0,0,0,0,0,-0.03999999910593033,-0.05000000074505806,1.100000023841858,0,0,0,0,0,0,0,0,0
2695,384430460726091,-0.0330628901720047,0.00558153074234724,0.8073693513870239,0.5890929698944092,0,0,0,0,0,0,0,0,0,0.009999999776482582,-0.05000000074505806,0.01999999955296516,0,0,0,0,0,0,0,0,0,-0.05000000074505806,-0.03999999910593033,1.100000023841858,0,0,0,0,0,0,0,0,0
2696,384430485174975,-0.02902830392122269,0.002632375806570053,0.8074361085891724,0.5892345905303955,0,0,0,0,0,0,0,0,0,0.009999999776482582,-0.09000000357627869,-0.02999999932944775,0,0,0,0,0,0,0,0,0,-0.07999999821186066,-0.05000000074505806,1.129999995231628,0,0,0,0,0,0,0,0,0
2697,384430508624175,-0.02902830392122269,0.002632375806570053,0.8074361085891724,0.5892345905303955,0,0,0,0,0,0,0,0,0,0.009999999776482582,0.01999999955296516,0.03999999910593033,0,0,0,0,0,0,0,0,0,-0.05000000074505806,-0.05999999865889549,1.110000014305115,0,0,0,0,0,0,0,0,0
2698,384430532840691,-0.02902830392122269,0.002632375806570053,0.8074361085891724,0.5892345905303955,0,0,0,0,0,0,0,0,0,-0,-0.03999999910593033,0.009999999776482582,0,0,0,0,0,0,0,0,0,-0.03999999910593033,-0.03999999910593033,1.110000014305115,0,0,0,0,0,0,0,0,0
2699,384430556931105,-0.02902830392122269,0.002632375806570053,0.8074361085891724,0.5892345905303955,0,0,0,0,0,0,0,0,0,0.03999999910593033,-0.009999999776482582,-0.03999999910593033,0,0,0,0,0,0,0,0,0,-0.05999999865889549,-0.03999999910593033,1.110000014305115,0,0,0,0,0,0,0,0,0
2700,384430581052344,-0.02901478111743927,0.002777483314275742,0.8044798374176025,0.5932644605636597,0,0,0,0,0,0,0,0,0,0.03999999910593033,0.01999999955296516,-0.05999999865889549,0,0,0,0,0,0,0,0,0,-0.07999999821186066,-0.05000000074505806,1.059999942779541,0,0,0,0,0,0,0,0,0
2701,384430604783396,-0.02901478111743927,0.002777483314275742,0.8044798374176025,0.5932644605636597,0,0,0,0,0,0,0,0,0,-0.01999999955296516,-0,0.02999999932944775,0,0,0,0,0,0,0,0,0,-0.05000000074505806,-0.05000000074505806,1.090000033378601,0,0,0,0,0,0,0,0,0
2702,384430628932841,-0.02902830392122269,0.002632375806570053,0.8074361085891724,0.5892345905303955,0,0,0,0,0,0,0,0,0,-0.05000000074505806,-0.02999999932944775,-0,0,0,0,0,0,0,0,0,0,-0.02999999932944775,-0.009999999776482582,1.100000023841858,0,0,0,0,0,0,0,0,0
2703,384430653348615,-0.02901478111743927,0.002777483314275742,0.8044798374176025,0.5932644605636597,0,0,0,0,0,0,0,0,0,-0.02999999932944775,-0.07999999821186066,-0.07000000029802322,0,0,0,0,0,0,0,0,0,-0.07999999821186066,-0.02999999932944775,1.120000004768372,0,0,0,0,0,0,0,0,0
2704,384430677183708,-0.02901478111743927,0.002777483314275742,0.8044798374176025,0.5932644605636597,0,0,0,0,0,0,0,0,0,-0.02999999932944775,-0.01999999955296516,0.009999999776482582,0,0,0,0,0,0,0,0,0,-0.07000000029802322,-0.01999999955296516,1.120000004768372,0,0,0,0,0,0,0,0,0
2705,384430700839013,-0.02901478111743927,0.002777483314275742,0.8044798374176025,0.5932644605636597,0,0,0,0,0,0,0,0,0,-0.01999999955296516,0.02999999932944775,-0.009999999776482582,0,0,0,0,0,0,0,0,0,-0.05999999865889549,-0.01999999955296516,1.139999985694885,0,0,0,0,0,0,0,0,0
2706,384430725319816,-0.02901478111743927,0.002777483314275742,0.8044798374176025,0.5932644605636597,0,0,0,0,0,0,0,0,0,0.05000000074505806,-0,-0.01999999955296516,0,0,0,0,0,0,0,0,0,-0.05000000074505806,-0.01999999955296516,1.080000042915344,0,0,0,0,0,0,0,0,0
2707,384430749445930,-0.02901478111743927,0.002777483314275742,0.8044798374176025,0.5932644605636597,0,0,0,0,0,0,0,0,0,-0.009999999776482582,-0.09000000357627869,-0.05999999865889549,0,0,0,0,0,0,0,0,0,-0.07999999821186066,-0.03999999910593033,1.070000052452087,0,0,0,0,0,0,0,0,0
2708,384430773222781,-0.02901478111743927,0.002777483314275742,0.8044798374176025,0.5932644605636597,0,0,0,0,0,0,0,0,0,-0.07000000029802322,-0.07999999821186066,0.01999999955296516,0,0,0,0,0,0,0,0,0,-0.05999999865889549,-0.02999999932944775,1.100000023841858,0,0,0,0,0,0,0,0,0
2709,384430797345702,-0.0319807231426239,-0.001244934275746346,0.8044836521148682,0.5931119322776794,0,0,0,0,0,0,0,0,0,-0.09000000357627869,-0.01999999955296516,-0.009999999776482582,0,0,0,0,0,0,0,0,0,-0.05000000074505806,-0.01999999955296516,1.149999976158142,0,0,0,0,0,0,0,0,0
2710,384430820769015,-0.0319807231426239,-0.001244934275746346,0.8044836521148682,0.5931119322776794,0,0,0,0,0,0,0,0,0,-0.03999999910593033,-0.02999999932944775,0.009999999776482582,0,0,0,0,0,0,0,0,0,-0.05000000074505806,-0.03999999910593033,1.080000042915344,0,0,0,0,0,0,0,0,0
2711,384430844893099,-0.0319807231426239,-0.001244934275746346,0.8044836521148682,0.5931119322776794,0,0,0,0,0,0,0,0,0,-0.1000000014901161,-0.119999997317791,0.01999999955296516,0,0,0,0,0,0,0,0,0,-0.02999999932944775,-0.02999999932944775,1.139999985694885,0,0,0,0,0,0,0,0,0
2712,384430869018267,-0.0279608927667141,-0.00421448890119791,0.8045148849487305,0.5932591557502747,0,0,0,0,0,0,0,0,0,-0.009999999776482582,0.03999999910593033,-0.01999999955296516,0,0,0,0,0,0,0,0,0,-0.009999999776482582,-0.009999999776482582,1.230000019073486,0,0,0,0,0,0,0,0,0
2713,384430893115354,-0.02901478111743927,0.002777483314275742,0.8044798374176025,0.5932644605636597,0,0,0,0,0,0,0,0,0,0.2099999934434891,0.1899999976158142,-0.1500000059604645,0,0,0,0,0,0,0,0,0,-0.07000000029802322,-0.009999999776482582,1.080000042915344,0,0,0,0,0,0,0,0,0
2714,384430916892064,-0.0290005300194025,0.002922521904110909,0.8015034794807434,0.5972793698310852,0,0,0,0,0,0,0,0,0,-0,-0.009999999776482582,-0.02999999932944775,0,0,0,0,0,0,0,0,0,-0.1700000017881393,-0.05000000074505806,0.9900000095367432,0,0,0,0,0,0,0,0,0
2715,384430941016573,-0.0290005300194025,0.002922521904110909,0.8015034794807434,0.5972793698310852,0,0,0,0,0,0,0,0,0,-0.1899999976158142,-0.1299999952316284,0.3100000023841858,0,0,0,0,0,0,0,0,0,-0.05000000074505806,-0,1.139999985694885,0,0,0,0,0,0,0,0,0
2716,384430965141949,-0.0319807231426239,-0.001244934275746346,0.8044836521148682,0.5931119322776794,0,0,0,0,0,0,0,0,0,-0.07999999821186066,-0.009999999776482582,0.2099999934434891,0,0,0,0,0,0,0,0,0,0.009999999776482582,-0.01999999955296516,1.139999985694885,0,0,0,0,0,0,0,0,0
2717,384430988566387,-0.0319807231426239,-0.001244934275746346,0.8044836521148682,0.5931119322776794,0,0,0,0,0,0,0,0,0,-0.03999999910593033,-0.02999999932944775,0.05000000074505806,0,0,0,0,0,0,0,0,0,0,-0.02999999932944775,1.149999976158142,0,0,0,0,0,0,0,0,0
2718,384431013045525,-0.0249942597001791,-0.000191880390048027,0.8045257925987244,0.5933915376663208,0,0,0,0,0,0,0,0,0,0.1700000017881393,-0.009999999776482582,-0.07999999821186066,0,0,0,0,0,0,0,0,0,-0.01999999955296516,-0.02999999932944775,1.149999976158142,0,0,0,0,0,0,0,0,0
2719,384431037139905,-0.0249942597001791,-0.000191880390048027,0.8045257925987244,0.5933915376663208,0,0,0,0,0,0,0,0,0,0.1000000014901161,0.03999999910593033,-0.119999997317791,0,0,0,0,0,0,0,0,0,-0.07000000029802322,-0.03999999910593033,1.029999971389771,0,0,0,0,0,0,0,0,0
2720,384431060916024,-0.0249942597001791,-0.000191880390048027,0.8045257925987244,0.5933915376663208,0,0,0,0,0,0,0,0,0,-0.07000000029802322,-0.07000000029802322,-0.009999999776482582,0,0,0,0,0,0,0,0,0,-0.07999999821186066,-0.05000000074505806,1.120000004768372,0,0,0,0,0,0,0,0,0
2721,384431084999478,-0.0249942597001791,-0.000191880390048027,0.8045257925987244,0.5933915376663208,0,0,0,0,0,0,0,0,0,-0.009999999776482582,-0.1099999994039536,0.05000000074505806,0,0,0,0,0,0,0,0,0,0,-0.01999999955296516,1.129999995231628,0,0,0,0,0,0,0,0,0
2722,384431109488341,-0.0249942597001791,-0.000191880390048027,0.8045257925987244,0.5933915376663208,0,0,0,0,0,0,0,0,0,0.05999999865889549,-0.009999999776482582,-0.119999997317791,0,0,0,0,0,0,0,0,0,-0.02999999932944775,-0.02999999932944775,1.169999957084656,0,0,0,0,0,0,0,0,0
2723,384431133356205,-0.0249942597001791,-0.000191880390048027,0.8045257925987244,0.5933915376663208,0,0,0,0,0,0,0,0,0,0.1400000005960464,0.01999999955296516,-0.05999999865889549,0,0,0,0,0,0,0,0,0,-0.02999999932944775,-0.03999999910593033,1.009999990463257,0,0,0,0,0,0,0,0,0
2724,384431157388338,-0.02499490603804588,-6.690621376037598e-05,0.8015488386154175,0.5974067449569702,0,0,0,0,0,0,0,0,0,-0.05999999865889549,-0.2099999934434891,-0.1099999994039536,0,0,0,0,0,0,0,0,0,-0.05000000074505806,-0.03999999910593033,1.090000033378601,0,0,0,0,0,0,0,0,0
2725,384431181162848,-0.02098866179585457,-0.003056331537663937,0.801574170589447,0.5975191593170166,0,0,0,0,0,0,0,0,0,-0.01999999955296516,-0.1400000005960464,-0.09000000357627869,0,0,0,0,0,0,0,0,0,-0.03999999910593033,-0.02999999932944775,1.129999995231628,0,0,0,0,0,0,0,0,0
2726,384431205287749,-0.02098866179585457,-0.003056331537663937,0.801574170589447,0.5975191593170166,0,0,0,0,0,0,0,0,0,0.07999999821186066,0.009999999776482582,-0.1899999976158142,0,0,0,0,0,0,0,0,0,-0.07000000029802322,-0.03999999910593033,1.100000023841858,0,0,0,0,0,0,0,0,0
2727,384431229063491,-0.02100368030369282,-0.002951350063085556,0.7985765337944031,0.6015195846557617,0,0,0,0,0,0,0,0,0,0.03999999910593033,0.05000000074505806,-0.1299999952316284,0,0,0,0,0,0,0,0,0,-0.1099999994039536,-0.05000000074505806,1.070000052452087,0,0,0,0,0,0,0,0,0
2728,384431252834963,-0.02499492652714252,5.806796252727509e-05,0.7985517978668213,0.601406991481781,0,0,0,0,0,0,0,0,0,-0.03999999910593033,0,0.009999999776482582,0,0,0,0,0,0,0,0,0,-0.07000000029802322,-0.05999999865889549,1.080000042915344,0,0,0,0,0,0,0,0,0
2729,384431277285875,-0.02100368030369282,-0.002951350063085556,0.7985765337944031,0.6015195846557617,0,0,0,0,0,0,0,0,0,-0.07999999821186066,-0.07999999821186066,-0.009999999776482582,0,0,0,0,0,0,0,0,0,0.009999999776482582,-0.01999999955296516,1.080000042915344,0,0,0,0,0,0,0,0,0
2730,384431301060929,-0.02101817354559898,-0.002846295014023781,0.7955589294433594,0.6055048704147339,0,0,0,0,0,0,0,0,0,-0.01999999955296516,-0.1299999952316284,-0.239999994635582,0,0,0,0,0,0,0,0,0,-0.03999999910593033,-0.05000000074505806,1.129999995231628,0,0,0,0,0,0,0,0,0
2731,384431325185503,-0.02101817354559898,-0.002846295014023781,0.7955589294433594,0.6055048704147339,0,0,0,0,0,0,0,0,0,-0.009999999776482582,0.1599999964237213,-0.1899999976158142,0,0,0,0,0,0,0,0,0,-0.07999999821186066,-0.05000000074505806,1.090000033378601,0,0,0,0,0,0,0,0,0
2732,384431349310294,-0.02499309740960598,0.0003080107271671295,0.7924978733062744,0.6093622446060181,0,0,0,0,0,0,0,0,0,-0.05999999865889549,0.1299999952316284,-0.03999999910593033,0,0,0,0,0,0,0,0,0,-0.07999999821186066,-0.03999999910593033,1.029999971389771,0,0,0,0,0,0,0,0,0
2733,384431373083853,-0.02803958579897881,-0.003654466010630131,0.7924895882606506,0.6092297434806824,0,0,0,0,0,0,0,0,0,-0.1099999994039536,-0.1800000071525574,0.05000000074505806,0,0,0,0,0,0,0,0,0,-0.07999999821186066,-0.05000000074505806,1.110000014305115,0,0,0,0,0,0,0,0,0
2734,384431397181590,-0.02803958579897881,-0.003654466010630131,0.7924895882606506,0.6092297434806824,0,0,0,0,0,0,0,0,0,-0.09000000357627869,0.009999999776482582,0.1099999994039536,0,0,0,0,0,0,0,0,0,-0.02999999932944775,-0.03999999910593033,1.149999976158142,0,0,0,0,0,0,0,0,0
2735,384431420983361,-0.02803958579897881,-0.003654466010630131,0.7924895882606506,0.6092297434806824,0,0,0,0,0,0,0,0,0,-0.02999999932944775,0.239999994635582,0.05999999865889549,0,0,0,0,0,0,0,0,0,-0.02999999932944775,-0.02999999932944775,1.169999957084656,0,0,0,0,0,0,0,0,0
2736,384431445010425,-0.02803958579897881,-0.003654466010630131,0.7924895882606506,0.6092297434806824,0,0,0,0,0,0,0,0,0,0.07000000029802322,0.1099999994039536,0.1000000014901161,0,0,0,0,0,0,0,0,0,-0.02999999932944775,-0.05999999865889549,1.090000033378601,0,0,0,0,0,0,0,0,0
2737,384431469205518,-0.0280209593474865,-0.003794617019593716,0.7955257296562195,0.6052597165107727,0,0,0,0,0,0,0,0,0,-0.009999999776482582,-0.05999999865889549,0.119999997317791,0,0,0,0,0,0,0,0,0,-0.01999999955296516,-0.05000000074505806,1.139999985694885,0,0,0,0,0,0,0,0,0
2738,384431492981271,-0.0280209593474865,-0.003794617019593716,0.7955257296562195,0.6052597165107727,0,0,0,0,0,0,0,0,0,-0,0.02999999932944775,0.119999997317791,0,0,0,0,0,0,0,0,0,-0.009999999776482582,-0.03999999910593033,1.159999966621399,0,0,0,0,0,0,0,0,0
2739,384431517104811,-0.0280209593474865,-0.003794617019593716,0.7955257296562195,0.6052597165107727,0,0,0,0,0,0,0,0,0,0.1000000014901161,0.07999999821186066,0.01999999955296516,0,0,0,0,0,0,0,0,0,-0.02999999932944775,-0.05999999865889549,1.120000004768372,0,0,0,0,0,0,0,0,0
2740,384431540878649,-0.0280209593474865,-0.003794617019593716,0.7955257296562195,0.6052597165107727,0,0,0,0,0,0,0,0,0,0.05999999865889549,0.09000000357627869,0.009999999776482582,0,0,0,0,0,0,0,0,0,-0.01999999955296516,-0.05999999865889549,1.029999971389771,0,0,0,0,0,0,0,0,0
2741,384431565331256,-0.0280209593474865,-0.003794617019593716,0.7955257296562195,0.6052597165107727,0,0,0,0,0,0,0,0,0,-0.1000000014901161,-0.01999999955296516,-0.07999999821186066,0,0,0,0,0,0,0,0,0,-0,-0.03999999910593033,1.090000033378601,0,0,0,0,0,0,0,0,0
2742,384431589454815,-0.0280209593474865,-0.003794617019593716,0.7955257296562195,0.6052597165107727,0,0,0,0,0,0,0,0,0,-0.05999999865889549,-0.05000000074505806,-0.2099999934434891,0,0,0,0,0,0,0,0,0,-0.05000000074505806,-0.01999999955296516,1.159999966621399,0,0,0,0,0,0,0,0,0
2743,384431613227352,-0.02803958579897881,-0.003654466010630131,0.7924895882606506,0.6092297434806824,0,0,0,0,0,0,0,0,0,0.1299999952316284,0.1099999994039536,-0.2000000029802322,0,0,0,0,0,0,0,0,0,-0.1299999952316284,-0.07000000029802322,1.070000052452087,0,0,0,0,0,0,0,0,0
2744,384431637002718,-0.03199922665953636,-0.0006051128730177879,0.7924612760543823,0.6090819239616394,0,0,0,0,0,0,0,0,0,-0.1299999952316284,0.07000000029802322,0.02999999932944775,0,0,0,0,0,0,0,0,0,-0.07999999821186066,-0.03999999910593033,1.019999980926514,0,0,0,0,0,0,0,0,0
2745,384431661128888,-0.03199922665953636,-0.0006051128730177879,0.7924612760543823,0.6090819239616394,0,0,0,0,0,0,0,0,0,-0.1899999976158142,-0.1899999976158142,0.07000000029802322,0,0,0,0,0,0,0,0,0,-0.05999999865889549,-0.05000000074505806,1.149999976158142,0,0,0,0,0,0,0,0,0
2746,384431685228793,-0.03108536824584007,-0.007616852410137653,0.7924612760543823,0.6090819239616394,0,0,0,0,0,0,0,0,0,-0.05999999865889549,-0.1400000005960464,0.05999999865889549,0,0,0,0,0,0,0,0,0,-0.01999999955296516,-0.009999999776482582,1.220000028610229,0,0,0,0,0,0,0,0,0
2747,384431709001777,-0.02803958579897881,-0.003654466010630131,0.7924895882606506,0.6092297434806824,0,0,0,0,0,0,0,0,0,0.07000000029802322,0.1700000017881393,-0.03999999910593033,0,0,0,0,0,0,0,0,0,-0.05000000074505806,-0.07000000029802322,1.049999952316284,0,0,0,0,0,0,0,0,0
2748,384431733221298,-0.03504422307014465,-0.004567396827042103,0.7924484014511108,0.6089142560958862,0,0,0,0,0,0,0,0,0,-0.1800000071525574,0.02999999932944775,-0.009999999776482582,0,0,0,0,0,0,0,0,0,-0.01999999955296516,-0.02999999932944775,1.070000052452087,0,0,0,0,0,0,0,0,0
2749,384431757255053,-0.03108536824584007,-0.007616852410137653,0.7924612760543823,0.6090819239616394,0,0,0,0,0,0,0,0,0,-0.1400000005960464,-0.1400000005960464,-0.09000000357627869,0,0,0,0,0,0,0,0,0,-0.09000000357627869,-0.05000000074505806,1.190000057220459,0,0,0,0,0,0,0,0,0
2750,384431781348960,-0.03108536824584007,-0.007616852410137653,0.7924612760543823,0.6090819239616394,0,0,0,0,0,0,0,0,0,0.05999999865889549,-0.009999999776482582,0.05000000074505806,0,0,0,0,0,0,0,0,0,-0.09000000357627869,-0.03999999910593033,1.159999966621399,0,0,0,0,0,0,0,0,0
2751,384431805123081,-0.03504422307014465,-0.004567396827042103,0.7924484014511108,0.6089142560958862,0,0,0,0,0,0,0,0,0,0.02999999932944775,0.1099999994039536,0.119999997317791,0,0,0,0,0,0,0,0,0,-0.03999999910593033,-0.05000000074505806,1.059999942779541,0,0,0,0,0,0,0,0,0
2752,384431829598614,-0.03108536824584007,-0.007616852410137653,0.7924612760543823,0.6090819239616394,0,0,0,0,0,0,0,0,0,-0.07999999821186066,-0.09000000357627869,0.09000000357627869,0,0,0,0,0,0,0,0,0,-0.009999999776482582,-0.03999999910593033,1.100000023841858,0,0,0,0,0,0,0,0,0
2753,384431853023988,-0.03108536824584007,-0.007616852410137653,0.7924612760543823,0.6090819239616394,0,0,0,0,0,0,0,0,0,-0.009999999776482582,-0.119999997317791,-0.02999999932944775,0,0,0,0,0,0,0,0,0,-0.03999999910593033,-0.01999999955296516,1.159999966621399,0,0,0,0,0,0,0,0,0
2754,384431877146945,-0.03108536824584007,-0.007616852410137653,0.7924612760543823,0.6090819239616394,0,0,0,0,0,0,0,0,0,0.03999999910593033,0.1299999952316284,-0.01999999955296516,0,0,0,0,0,0,0,0,0,-0.1000000014901161,-0.02999999932944775,1.070000052452087,0,0,0,0,0,0,0,0,0
2755,384431901272905,-0.03504422307014465,-0.004567396827042103,0.7924484014511108,0.6089142560958862,0,0,0,0,0,0,0,0,0,-0.05999999865889549,0.07999999821186066,0.119999997317791,0,0,0,0,0,0,0,0,0,-0.05000000074505806,-0.02999999932944775,1.059999942779541,0,0,0,0,0,0,0,0,0
2756,384431925371069,-0.03108536824584007,-0.007616852410137653,0.7924612760543823,0.6090819239616394,0,0,0,0,0,0,0,0,0,-0.1599999964237213,-0.1800000071525574,0.07999999821186066,0,0,0,0,0,0,0,0,0,0.03999999910593033,-0.009999999776482582,1.110000014305115,0,0,0,0,0,0,0,0,0
2757,384431949148793,-0.02712574042379856,-0.01066611614078283,0.7924544811248779,0.6092342734336853,0,0,0,0,0,0,0,0,0,-0.1099999994039536,-0.3199999928474426,-0.1700000017881393,0,0,0,0,0,0,0,0,0,-0.02999999932944775,-0,1.100000023841858,0,0,0,0,0,0,0,0,0
2758,384431973272456,-0.02717873081564903,-0.01053035538643599,0.7893984317779541,0.6131889820098877,0,0,0,0,0,0,0,0,0,-0.02999999932944775,-0.1800000071525574,-0.25,0,0,0,0,0,0,0,0,0,-0.1700000017881393,-0.01999999955296516,1.149999976158142,0,0,0,0,0,0,0,0,0
2759,384431996720050,-0.03112306632101536,-0.00746132992208004,0.7894060611724854,0.613036572933197,0,0,0,0,0,0,0,0,0,0.02999999932944775,0.1400000005960464,0.2000000029802322,0,0,0,0,0,0,0,0,0,-0.1400000005960464,-0.1000000014901161,1.090000033378601,0,0,0,0,0,0,0,0,0
2760,384432021183601,-0.03108536824584007,-0.007616852410137653,0.7924612760543823,0.6090819239616394,0,0,0,0,0,0,0,0,0,-0.1099999994039536,-0.05999999865889549,0.4699999988079071,0,0,0,0,0,0,0,0,0,0.09000000357627869,-0.01999999955296516,1.090000033378601,0,0,0,0,0,0,0,0,0
2761,384432044945516,-0.02707207016646862,-0.01080161053687334,0.7954906821250916,0.6052643656730652,0,0,0,0,0,0,0,0,0,0.009999999776482582,-0.1899999976158142,0.05999999865889549,0,0,0,0,0,0,0,0,0,0.009999999776482582,-0.03999999910593033,1.210000038146973,0,0,0,0,0,0,0,0,0
2762,384432069068523,-0.02707207016646862,-0.01080161053687334,0.7954906821250916,0.6052643656730652,0,0,0,0,0,0,0,0,0,0.119999997317791,0.2300000041723251,0.009999999776482582,0,0,0,0,0,0,0,0,0,-0.07000000029802322,-0.07000000029802322,1.190000057220459,0,0,0,0,0,0,0,0,0
2763,384432093170764,-0.0280209593474865,-0.003794617019593716,0.7955257296562195,0.6052597165107727,0,0,0,0,0,0,0,0,0,0.1599999964237213,0.2000000029802322,0.1899999976158142,0,0,0,0,0,0,0,0,0,0.02999999932944775,-0.05999999865889549,0.9599999785423279,0,0,0,0,0,0,0,0,0
2764,384432117295910,-0.02404542081058025,-0.006824036128818989,0.7955347299575806,0.6053921580314636,0,0,0,0,0,0,0,0,0,-0.05000000074505806,-0.2099999934434891,-0.03999999910593033,0,0,0,0,0,0,0,0,0,-0,-0.02999999932944775,1.110000014305115,0,0,0,0,0,0,0,0,0
2765,384432141067415,-0.02404542081058025,-0.006824036128818989,0.7955347299575806,0.6053921580314636,0,0,0,0,0,0,0,0,0,0,-0.1400000005960464,-0.03999999910593033,0,0,0,0,0,0,0,0,0,-0.119999997317791,-0.05000000074505806,1.159999966621399,0,0,0,0,0,0,0,0,0
2766,384432165195473,-0.02404542081058025,-0.006824036128818989,0.7955347299575806,0.6053921580314636,0,0,0,0,0,0,0,0,0,0.1299999952316284,0.1700000017881393,0.2300000041723251,0,0,0,0,0,0,0,0,0,-0.01999999955296516,-0.05999999865889549,1.120000004768372,0,0,0,0,0,0,0,0,0
2767,384432188905558,-0.02404542081058025,-0.006824036128818989,0.7955347299575806,0.6053921580314636,0,0,0,0,0,0,0,0,0,0.03999999910593033,0.1599999964237213,0.1299999952316284,0,0,0,0,0,0,0,0,0,0.03999999910593033,-0.03999999910593033,1.090000033378601,0,0,0,0,0,0,0,0,0
2768,384432213416892,-0.02404542081058025,-0.006824036128818989,0.7955347299575806,0.6053921580314636,0,0,0,0,0,0,0,0,0,0.07999999821186066,-0.119999997317791,-0.01999999955296516,0,0,0,0,0,0,0,0,0,-0.02999999932944775,-0.05999999865889549,1.129999995231628,0,0,0,0,0,0,0,0,0
2769,384432236865176,-0.02404542081058025,-0.006824036128818989,0.7955347299575806,0.6053921580314636,0,0,0,0,0,0,0,0,0,0.119999997317791,0.03999999910593033,0.009999999776482582,0,0,0,0,0,0,0,0,0,-0.05000000074505806,-0.05000000074505806,1.179999947547913,0,0,0,0,0,0,0,0,0
2770,384432260966053,-0.02101817354559898,-0.002846295014023781,0.7955589294433594,0.6055048704147339,0,0,0,0,0,0,0,0,0,0.2000000029802322,0.1599999964237213,0.07999999821186066,0,0,0,0,0,0,0,0,0,0.009999999776482582,-0.05999999865889549,1.029999971389771,0,0,0,0,0,0,0,0,0
2771,384432285439464,-0.02101817354559898,-0.002846295014023781,0.7955589294433594,0.6055048704147339,0,0,0,0,0,0,0,0,0,0.05999999865889549,-0.01999999955296516,-0.05999999865889549,0,0,0,0,0,0,0,0,0,-0.01999999955296516,-0.03999999910593033,1.110000014305115,0,0,0,0,0,0,0,0,0
2772,384432308863540,-0.02499432489275932,0.0001830421388149261,0.7955347299575806,0.6053921580314636,0,0,0,0,0,0,0,0,0,0.1000000014901161,0.03999999910593033,-0.05000000074505806,0,0,0,0,0,0,0,0,0,-0.05999999865889549,-0.07000000029802322,1.120000004768372,0,0,0,0,0,0,0,0,0
2773,384432333080970,-0.02499432489275932,0.0001830421388149261,0.7955347299575806,0.6053921580314636,0,0,0,0,0,0,0,0,0,0.09000000357627869,0.03999999910593033,-0.05000000074505806,0,0,0,0,0,0,0,0,0,-0.05000000074505806,-0.03999999910593033,1.080000042915344,0,0,0,0,0,0,0,0,0
2774,384432357522536,-0.02499309740960598,0.0003080107271671295,0.7924978733062744,0.6093622446060181,0,0,0,0,0,0,0,0,0,0.1299999952316284,-0.009999999776482582,-0.05000000074505806,0,0,0,0,0,0,0,0,0,-0.1000000014901161,-0.07000000029802322,1.100000023841858,0,0,0,0,0,0,0,0,0
2775,384432381266741,-0.02499309740960598,0.0003080107271671295,0.7924978733062744,0.6093622446060181,0,0,0,0,0,0,0,0,0,0.07000000029802322,0.07000000029802322,0.05000000074505806,0,0,0,0,0,0,0,0,0,-0.009999999776482582,-0.07999999821186066,1.029999971389771,0,0,0,0,0,0,0,0,0
2776,384432405298391,-0.02103214338421822,-0.002741169184446335,0.7925215363502502,0.6094750761985779,0,0,0,0,0,0,0,0,0,-0.1400000005960464,-0.1299999952316284,-0.09000000357627869,0,0,0,0,0,0,0,0,0,0.05000000074505806,-0.03999999910593033,1.100000023841858,0,0,0,0,0,0,0,0,0
2777,384432429113310,-0.02103214338421822,-0.002741169184446335,0.7925215363502502,0.6094750761985779,0,0,0,0,0,0,0,0,0,0.01999999955296516,-0.119999997317791,-0.3199999928474426,0,0,0,0,0,0,0,0,0,-0.07000000029802322,-0.03999999910593033,1.230000019073486,0,0,0,0,0,0,0,0,0
2778,384432453237918,-0.0249912440776825,0.000432971864938736,0.7894411683082581,0.6133171916007996,0,0,0,0,0,0,0,0,0,0.2199999988079071,0.119999997317791,-0.1899999976158142,0,0,0,0,0,0,0,0,0,-0.1899999976158142,-0.05999999865889549,1.029999971389771,0,0,0,0,0,0,0,0,0
2779,384432477011183,-0.0249912440776825,0.000432971864938736,0.7894411683082581,0.6133171916007996,0,0,0,0,0,0,0,0,0,-0.05000000074505806,0.09000000357627869,0.2800000011920929,0,0,0,0,0,0,0,0,0,-0.07000000029802322,-0.07999999821186066,0.9900000095367432,0,0,0,0,0,0,0,0,0
2780,384432501461202,-0.02499309740960598,0.0003080107271671295,0.7924978733062744,0.6093622446060181,0,0,0,0,0,0,0,0,0,-0.2099999934434891,-0.1800000071525574,0.2899999916553497,0,0,0,0,0,0,0,0,0,0.07000000029802322,-0.03999999910593033,1.190000057220459,0,0,0,0,0,0,0,0,0
2781,384432525235340,-0.02103214338421822,-0.002741169184446335,0.7925215363502502,0.6094750761985779,0,0,0,0,0,0,0,0,0,0.07000000029802322,-0.239999994635582,-0,0,0,0,0,0,0,0,0,0,0.01999999955296516,-0.01999999955296516,1.200000047683716,0,0,0,0,0,0,0,0,0
2782,384432549358737,-0.02103214338421822,-0.002741169184446335,0.7925215363502502,0.6094750761985779,0,0,0,0,0,0,0,0,0,0.239999994635582,0.1599999964237213,-0.119999997317791,0,0,0,0,0,0,0,0,0,-0.1000000014901161,-0.07000000029802322,1.090000033378601,0,0,0,0,0,0,0,0,0
2783,384432572783443,-0.02499309740960598,0.0003080107271671295,0.7924978733062744,0.6093622446060181,0,0,0,0,0,0,0,0,0,-0.009999999776482582,0.25,0.07999999821186066,0,0,0,0,0,0,0,0,0,0.009999999776482582,-0.07000000029802322,0.9900000095367432,0,0,0,0,0,0,0,0,0
2784,384432597235180,-0.02103214338421822,-0.002741169184446335,0.7925215363502502,0.6094750761985779,0,0,0,0,0,0,0,0,0,-0.1299999952316284,-0.1800000071525574,-0.07999999821186066,0,0,0,0,0,0,0,0,0,-0.009999999776482582,-0.01999999955296516,1.25,0,0,0,0,0,0,0,0,0
2785,384432621358898,-0.02103214338421822,-0.002741169184446335,0.7925215363502502,0.6094750761985779,0,0,0,0,0,0,0,0,0,0.2300000041723251,-0.05999999865889549,-0.119999997317791,0,0,0,0,0,0,0,0,0,-0.1099999994039536,-0.009999999776482582,1.159999966621399,0,0,0,0,0,0,0,0,0
2786,384432644806285,-0.02192436158657074,0.004380155354738235,0.7894291281700134,0.6134344339370728,0,0,0,0,0,0,0,0,0,0.2700000107288361,0.25,0.01999999955296516,0,0,0,0,0,0,0,0,0,-0.119999997317791,-0.1000000014901161,1.009999990463257,0,0,0,0,0,0,0,0,0
2787,384432669258172,-0.02590690925717354,0.007319397293031216,0.7924277186393738,0.6093713641166687,0,0,0,0,0,0,0,0,0,-0.1800000071525574,0.1500000059604645,0.2199999988079071,0,0,0,0,0,0,0,0,0,0,-0.02999999932944775,1.019999980926514,0,0,0,0,0,0,0,0,0
2788,384432693382371,-0.02499309740960598,0.0003080107271671295,0.7924978733062744,0.6093622446060181,0,0,0,0,0,0,0,0,0,-0.1400000005960464,-0.239999994635582,0.07999999821186066,0,0,0,0,0,0,0,0,0,-0.02999999932944775,-0.02999999932944775,1.190000057220459,0,0,0,0,0,0,0,0,0
2789,384432717155877,-0.02499309740960598,0.0003080107271671295,0.7924978733062744,0.6093622446060181,0,0,0,0,0,0,0,0,0,0.1000000014901161,-0.1500000059604645,0.05000000074505806,0,0,0,0,0,0,0,0,0,-0.05999999865889549,0.009999999776482582,1.179999947547913,0,0,0,0,0,0,0,0,0
2790,384432741257441,-0.02194598689675331,0.004270479083061218,0.7924864292144775,0.6094796657562256,0,0,0,0,0,0,0,0,0,0.239999994635582,0.3300000131130219,0.07999999821186066,0,0,0,0,0,0,0,0,0,-0.1500000059604645,-0.07000000029802322,1.100000023841858,0,0,0,0,0,0,0,0,0
2791,384432765380057,-0.02594318240880966,0.00718977116048336,0.7954646348953247,0.6054015755653381,0,0,0,0,0,0,0,0,0,-0.05999999865889549,0.2099999934434891,0.3400000035762787,0,0,0,0,0,0,0,0,0,0.07999999821186066,-0.02999999932944775,0.9399999976158142,0,0,0,0,0,0,0,0,0
2792,384432789155549,-0.02499432489275932,0.0001830421388149261,0.7955347299575806,0.6053921580314636,0,0,0,0,0,0,0,0,0,-0.239999994635582,-0.3499999940395355,-0.07000000029802322,0,0,0,0,0,0,0,0,0,0.03999999910593033,-0.009999999776482582,1.210000038146973,0,0,0,0,0,0,0,0,0
2793,384432813604407,-0.02101817354559898,-0.002846295014023781,0.7955589294433594,0.6055048704147339,0,0,0,0,0,0,0,0,0,0.07999999821186066,-0.3600000143051147,-0.1899999976158142,0,0,0,0,0,0,0,0,0,-0.02999999932944775,0.009999999776482582,1.230000019073486,0,0,0,0,0,0,0,0,0
2794,384432837382395,-0.01798451691865921,0.001221455633640289,0.7925252914428711,0.6095726490020752,0,0,0,0,0,0,0,0,0,0.2199999988079071,0.25,-0.2000000029802322,0,0,0,0,0,0,0,0,0,-0.1400000005960464,-0,1.190000057220459,0,0,0,0,0,0,0,0,0
2795,384432861178564,-0.02285974100232124,0.01128142792731524,0.792381227016449,0.6094933152198792,0,0,0,0,0,0,0,0,0,0.3400000035762787,0.4399999976158142,0.03999999910593033,0,0,0,0,0,0,0,0,0,-0.1000000014901161,-0.02999999932944775,0.9800000190734863,0,0,0,0,0,0,0,0,0
2796,384432885313940,-0.02285974100232124,0.01128142792731524,0.792381227016449,0.6094933152198792,0,0,0,0,0,0,0,0,0,-0.05000000074505806,-0.01999999955296516,0.1000000014901161,0,0,0,0,0,0,0,0,0,-0.02999999932944775,0,0.9900000095367432,0,0,0,0,0,0,0,0,0
2797,384432909755990,-0.01893925480544567,0.008138246834278107,0.7954931259155273,0.6056118011474609,0,0,0,0,0,0,0,0,0,-0.1400000005960464,-0.2899999916553497,0.07000000029802322,0,0,0,0,0,0,0,0,0,-0.009999999776482582,-0,1.190000057220459,0,0,0,0,0,0,0,0,0
2798,384432933270470,-0.01893925480544567,0.008138246834278107,0.7954931259155273,0.6056118011474609,0,0,0,0,0,0,0,0,0,0,-0.02999999932944775,-0.07000000029802322,0,0,0,0,0,0,0,0,0,-0.01999999955296516,0.02999999932944775,1.210000038146973,0,0,0,0,0,0,0,0,0
2799,384432957383476,-0.01889832690358162,0.008232841268181801,0.7924551963806152,0.6095817089080811,0,0,0,0,0,0,0,0,0,0.2099999934434891,0.25,-0.1800000071525574,0,0,0,0,0,0,0,0,0,-0.119999997317791,-0.02999999932944775,1.159999966621399,0,0,0,0,0,0,0,0,0
2800,384432981076291,-0.02285974100232124,0.01128142792731524,0.792381227016449,0.6094933152198792,0,0,0,0,0,0,0,0,0,0.1000000014901161,0.1500000059604645,0,0,0,0,0,0,0,0,0,0,-0.05000000074505806,0.009999999776482582,0.9599999785423279,0,0,0,0,0,0,0,0,0
2801,384433005179219,-0.02285974100232124,0.01128142792731524,0.792381227016449,0.6094933152198792,0,0,0,0,0,0,0,0,0,-0.1500000059604645,-0.2000000029802322,-0.02999999932944775,0,0,0,0,0,0,0,0,0,-0.05999999865889549,0,1.179999947547913,0,0,0,0,0,0,0,0,0
2802,384433028976227,-0.01889832690358162,0.008232841268181801,0.7924551963806152,0.6095817089080811,0,0,0,0,0,0,0,0,0,0.05999999865889549,-0.1599999964237213,-0.009999999776482582,0,0,0,0,0,0,0,0,0,-0.05999999865889549,0.02999999932944775,1.179999947547913,0,0,0,0,0,0,0,0,0
2803,384433053425678,-0.01981200091540813,0.01524317637085915,0.7923149466514587,0.6096000075340271,0,0,0,0,0,0,0,0,0,0.1800000071525574,0.1299999952316284,-0.02999999932944775,0,0,0,0,0,0,0,0,0,-0.1099999994039536,-0.009999999776482582,1.110000014305115,0,0,0,0,0,0,0,0,0
2804,384433076848894,-0.01981200091540813,0.01524317637085915,0.7923149466514587,0.6096000075340271,0,0,0,0,0,0,0,0,0,0.009999999776482582,0.1800000071525574,0.1599999964237213,0,0,0,0,0,0,0,0,0,-0.01999999955296516,-0.01999999955296516,1,0,0,0,0,0,0,0,0,0
2805,384433101325009,-0.01889832690358162,0.008232841268181801,0.7924551963806152,0.6095817089080811,0,0,0,0,0,0,0,0,0,-0.1899999976158142,-0.2899999916553497,0.07999999821186066,0,0,0,0,0,0,0,0,0,0.07000000029802322,-0.009999999776482582,1.100000023841858,0,0,0,0,0,0,0,0,0
2806,384433125100073,-0.01493644062429667,0.005184050183743238,0.7925092577934265,0.6096549034118652,0,0,0,0,0,0,0,0,0,-0.05000000074505806,-0.2599999904632568,-0.2199999988079071,0,0,0,0,0,0,0,0,0,-0.009999999776482582,0.01999999955296516,1.289999961853027,0,0,0,0,0,0,0,0,0
2807,384433149208774,-0.01578902266919613,0.01227409578859806,0.7893458604812622,0.6136230230331421,0,0,0,0,0,0,0,0,0,0.239999994635582,0.2099999934434891,-0.2700000107288361,0,0,0,0,0,0,0,0,0,-0.1599999964237213,-0.02999999932944775,1.110000014305115,0,0,0,0,0,0,0,0,0
2808,384433173324726,-0.01973553746938705,0.01534204557538033,0.7892570495605469,0.6135539412498474,0,0,0,0,0,0,0,0,0,0.119999997317791,0.1899999976158142,0.1500000059604645,0,0,0,0,0,0,0,0,0,-0.1000000014901161,-0.03999999910593033,0.949999988079071,0,0,0,0,0,0,0,0,0
2809,384433197099596,-0.01585019379854202,0.01219499763101339,0.7924041152000427,0.6096686124801636,0,0,0,0,0,0,0,0,0,-0.1599999964237213,-0.1899999976158142,0.2300000041723251,0,0,0,0,0,0,0,0,0,-0.02999999932944775,0.009999999776482582,1.149999976158142,0,0,0,0,0,0,0,0,0
2810,384433220872237,-0.01585019379854202,0.01219499763101339,0.7924041152000427,0.6096686124801636,0,0,0,0,0,0,0,0,0,0.05999999865889549,-0.119999997317791,0.1500000059604645,0,0,0,0,0,0,0,0,0,-0.09000000357627869,0.009999999776482582,1.159999966621399,0,0,0,0,0,0,0,0,0
2811,384433245323502,-0.01981200091540813,0.01524317637085915,0.7923149466514587,0.6096000075340271,0,0,0,0,0,0,0,0,0,0.1700000017881393,0.25,0.2000000029802322,0,0,0,0,0,0,0,0,0,-0.2300000041723251,-0,1.129999995231628,0,0,0,0,0,0,0,0,0
2812,384433269093906,-0.02395502850413322,0.01805232837796211,0.7982614040374756,0.6015638113021851,0,0,0,0,0,0,0,0,0,0.1400000005960464,0.3799999952316284,0.6600000262260437,0,0,0,0,0,0,0,0,0,0.07999999821186066,-0.05999999865889549,0.8199999928474426,0,0,0,0,0,0,0,0,0
2813,384433293219088,-0.01603132858872414,0.01195588242262602,0.8014596700668335,0.5977144241333008,0,0,0,0,0,0,0,0,0,-0.4900000095367432,-0.2800000011920929,0.119999997317791,0,0,0,0,0,0,0,0,0,0.2599999904632568,0.009999999776482582,1.179999947547913,0,0,0,0,0,0,0,0,0
2814,384433317344571,-0.01501251850277185,0.004959428682923317,0.8015645742416382,0.5976991057395935,0,0,0,0,0,0,0,0,0,-0.1800000071525574,-0.4300000071525574,-0.5299999713897705,0,0,0,0,0,0,0,0,0,0.05000000074505806,0.02999999932944775,1.370000004768372,0,0,0,0,0,0,0,0,0
2815,384433341108332,-0.0119335763156414,0.009086960926651955,0.7955121397972107,0.6057519912719727,0,0,0,0,0,0,0,0,0,0.300000011920929,0.1000000014901161,-0.6399999856948853,0,0,0,0,0,0,0,0,0,-0.1800000071525574,-0.009999999776482582,1.100000023841858,0,0,0,0,0,0,0,0,0
2816,384433365245126,-0.01973553746938705,0.01534204557538033,0.7892570495605469,0.6135539412498474,0,0,0,0,0,0,0,0,0,0.1700000017881393,0.3499999940395355,-0.239999994635582,0,0,0,0,0,0,0,0,0,-0.3300000131130219,0.009999999776482582,1.120000004768372,0,0,0,0,0,0,0,0,0
2817,384433389340839,-0.02072544395923615,0.02225175686180592,0.7921046614646912,0.6096274256706238,0,0,0,0,0,0,0,0,0,0.3300000131130219,0.3600000143051147,0.5099999904632568,0,0,0,0,0,0,0,0,0,-0.1500000059604645,-0.07999999821186066,0.8999999761581421,0,0,0,0,0,0,0,0,0
2818,384433412791745,-0.02094692178070545,0.02204339392483234,0.7981612086296082,0.6016759872436523,0,0,0,0,0,0,0,0,0,-0.3799999952316284,-0.2300000041723251,0.5600000023841858,0,0,0,0,0,0,0,0,0,0.1299999952316284,0.05999999865889549,1.059999942779541,0,0,0,0,0,0,0,0,0
2819,384433437243167,-0.01597134955227375,0.01203588861972094,0.7984610795974731,0.6017142534255981,0,0,0,0,0,0,0,0,0,-0.1500000059604645,-0.2800000011920929,0.119999997317791,0,0,0,0,0,0,0,0,0,-0.009999999776482582,-0.01999999955296516,1.320000052452087,0,0,0,0,0,0,0,0,0
2820,384433461014231,-0.01603132858872414,0.01195588242262602,0.8014596700668335,0.5977144241333008,0,0,0,0,0,0,0,0,0,0.1899999976158142,0.2000000029802322,0.07000000029802322,0,0,0,0,0,0,0,0,0,0.009999999776482582,0.01999999955296516,1.149999976158142,0,0,0,0,0,0,0,0,0
2821,384433485117618,-0.02094692178070545,0.02204339392483234,0.7981612086296082,0.6016759872436523,0,0,0,0,0,0,0,0,0,0.2099999934434891,0.3499999940395355,-0.01999999955296516,0,0,0,0,0,0,0,0,0,-0.1400000005960464,-0.05000000074505806,1.059999942779541,0,0,0,0,0,0,0,0,0
2822,384433508567985,-0.0210568755865097,0.02193838357925415,0.8011595606803894,0.5976777076721191,0,0,0,0,0,0,0,0,0,0.01999999955296516,0.009999999776482582,0.2700000107288361,0,0,0,0,0,0,0,0,0,0.009999999776482582,-0,0.9300000071525574,0,0,0,0,0,0,0,0,0
2823,384433533137956,-0.02011288329958916,0.01484391465783119,0.8043476343154907,0.5936328768730164,0,0,0,0,0,0,0,0,0,-0.2199999988079071,-0.3400000035762787,0.07000000029802322,0,0,0,0,0,0,0,0,0,-0.009999999776482582,-0.009999999776482582,1.200000047683716,0,0,0,0,0,0,0,0,0
2824,384433557241109,-0.01609090901911259,0.01187557633966208,0.8044382333755493,0.5936996936798096,0,0,0,0,0,0,0,0,0,0.07000000029802322,-0.1000000014901161,-0.01999999955296516,0,0,0,0,0,0,0,0,0,-0.03999999910593033,0.009999999776482582,1.200000047683716,0,0,0,0,0,0,0,0,0
2825,384433580590246,-0.01704993844032288,0.0189509354531765,0.8012846708297729,0.5977398753166199,0,0,0,0,0,0,0,0,0,0.2099999934434891,0.1899999976158142,-0.05999999865889549,0,0,0,0,0,0,0,0,0,-0.1800000071525574,-0.009999999776482582,1.080000042915344,0,0,0,0,0,0,0,0,0
2826,384433605038483,-0.02116630598902702,0.02183282375335693,0.8041379451751709,0.5936645269393921,0,0,0,0,0,0,0,0,0,0.119999997317791,0.2800000011920929,0.2899999916553497,0,0,0,0,0,0,0,0,0,-0.03999999910593033,-0.03999999910593033,0.8899999856948853,0,0,0,0,0,0,0,0,0
2827,384433629161471,-0.02011288329958916,0.01484391465783119,0.8043476343154907,0.5936328768730164,0,0,0,0,0,0,0,0,0,-0.3100000023841858,-0.300000011920929,0.1500000059604645,0,0,0,0,0,0,0,0,0,0,0,1.169999957084656,0,0,0,0,0,0,0,0,0
2828,384433652939790,-0.01615008525550365,0.01179497316479683,0.8073966503143311,0.5896700620651245,0,0,0,0,0,0,0,0,0,0.07000000029802322,-0.25,0.07000000029802322,0,0,0,0,0,0,0,0,0,-0.05999999865889549,0.009999999776482582,1.25,0,0,0,0,0,0,0,0,0
2829,384433677060751,-0.01723859086632729,0.01877949200570583,0.8072218894958496,0.5896972417831421,0,0,0,0,0,0,0,0,0,0.2099999934434891,0.3400000035762787,0.009999999776482582,0,0,0,0,0,0,0,0,0,-0.1000000014901161,-0.009999999776482582,1.080000042915344,0,0,0,0,0,0,0,0,0
2830,384433701165174,-0.02127520367503166,0.02172672189772129,0.8070961833000183,0.5896363854408264,0,0,0,0,0,0,0,0,0,0,0.2700000107288361,0.1899999976158142,0,0,0,0,0,0,0,0,0,-0,-0.01999999955296516,0.9100000262260437,0,0,0,0,0,0,0,0,0
2831,384433724935082,-0.02018685080111027,0.01474316511303186,0.8073057532310486,0.5896037220954895,0,0,0,0,0,0,0,0,0,-0.2199999988079071,-0.3400000035762787,0.01999999955296516,0,0,0,0,0,0,0,0,0,-0.02999999932944775,0.01999999955296516,1.210000038146973,0,0,0,0,0,0,0,0,0
2832,384433749061914,-0.02018685080111027,0.01474316511303186,0.8073057532310486,0.5896037220954895,0,0,0,0,0,0,0,0,0,0.09000000357627869,-0.09000000357627869,-0,0,0,0,0,0,0,0,0,0,-0.1000000014901161,0.02999999932944775,1.190000057220459,0,0,0,0,0,0,0,0,0
2833,384433773186002,-0.01723859086632729,0.01877949200570583,0.8072218894958496,0.5896972417831421,0,0,0,0,0,0,0,0,0,0.1400000005960464,0.2899999916553497,0.07000000029802322,0,0,0,0,0,0,0,0,0,-0.07999999821186066,-0.009999999776482582,1.039999961853027,0,0,0,0,0,0,0,0,0
2834,384433797284465,-0.01723859086632729,0.01877949200570583,0.8072218894958496,0.5896972417831421,0,0,0,0,0,0,0,0,0,-0.07000000029802322,0.009999999776482582,0.1500000059604645,0,0,0,0,0,0,0,0,0,-0.009999999776482582,0.009999999776482582,1.049999952316284,0,0,0,0,0,0,0,0,0
2835,384433821058306,-0.01733227446675301,0.01869306527078152,0.8101602792739868,0.5856538414955139,0,0,0,0,0,0,0,0,0,-0.05999999865889549,-0.1800000071525574,0.03999999910593033,0,0,0,0,0,0,0,0,0,-0.01999999955296516,0.01999999955296516,1.230000019073486,0,0,0,0,0,0,0,0,0
2836,384433845187726,-0.01723859086632729,0.01877949200570583,0.8072218894958496,0.5896972417831421,0,0,0,0,0,0,0,0,0,0.119999997317791,0.009999999776482582,-0.09000000357627869,0,0,0,0,0,0,0,0,0,-0.05999999865889549,0.05000000074505806,1.100000023841858,0,0,0,0,0,0,0,0,0
2837,384433869633537,-0.02127520367503166,0.02172672189772129,0.8070961833000183,0.5896363854408264,0,0,0,0,0,0,0,0,0,0.1299999952316284,0.2300000041723251,-0.03999999910593033,0,0,0,0,0,0,0,0,0,-0.1500000059604645,-0.01999999955296516,1.080000042915344,0,0,0,0,0,0,0,0,0
2838,384433893081674,-0.02127520367503166,0.02172672189772129,0.8070961833000183,0.5896363854408264,0,0,0,0,0,0,0,0,0,-0.07000000029802322,0.1099999994039536,0.2199999988079071,0,0,0,0,0,0,0,0,0,-0.05999999865889549,0.03999999910593033,1.009999990463257,0,0,0,0,0,0,0,0,0
2839,384433917210160,-0.02138357236981392,0.02162007428705692,0.8100342154502869,0.5855935215950012,0,0,0,0,0,0,0,0,0,-0.119999997317791,-0.239999994635582,0.2000000029802322,0,0,0,0,0,0,0,0,0,-0.01999999955296516,0.009999999776482582,1.129999995231628,0,0,0,0,0,0,0,0,0
2840,384433941305356,-0.01733227446675301,0.01869306527078152,0.8101602792739868,0.5856538414955139,0,0,0,0,0,0,0,0,0,-0.05000000074505806,-0.1599999964237213,0.05000000074505806,0,0,0,0,0,0,0,0,0,0.01999999955296516,0.07000000029802322,1.220000028610229,0,0,0,0,0,0,0,0,0
2841,384433965083895,-0.01723859086632729,0.01877949200570583,0.8072218894958496,0.5896972417831421,0,0,0,0,0,0,0,0,0,0.1899999976158142,0.2199999988079071,-0.119999997317791,0,0,0,0,0,0,0,0,0,-0.1599999964237213,0.02999999932944775,1.159999966621399,0,0,0,0,0,0,0,0,0
2842,384433989204187,-0.01832676865160465,0.0257619135081768,0.8069774508476257,0.5897353887557983,0,0,0,0,0,0,0,0,0,0.2199999988079071,0.3400000035762787,0.1899999976158142,0,0,0,0,0,0,0,0,0,-0.07999999821186066,-0.009999999776482582,0.9200000166893005,0,0,0,0,0,0,0,0,0
2843,384434012981495,-0.01845534890890121,0.02566996030509472,0.8099160194396973,0.5856931805610657,0,0,0,0,0,0,0,0,0,-0.1500000059604645,-0.1700000017881393,0.1899999976158142,0,0,0,0,0,0,0,0,0,-0.05000000074505806,0.03999999910593033,1.169999957084656,0,0,0,0,0,0,0,0,0
2844,384434037104800,-0.01845534890890121,0.02566996030509472,0.8099160194396973,0.5856931805610657,0,0,0,0,0,0,0,0,0,0.1000000014901161,-0.05999999865889549,0.1599999964237213,0,0,0,0,0,0,0,0,0,-0.05999999865889549,0.02999999932944775,1.169999957084656,0,0,0,0,0,0,0,0,0
2845,384434061203964,-0.01858346909284592,0.025577362626791,0.8128343820571899,0.5816362500190735,0,0,0,0,0,0,0,0,0,0.1299999952316284,0.1899999976158142,0.1000000014901161,0,0,0,0,0,0,0,0,0,-0.09000000357627869,0.01999999955296516,1.080000042915344,0,0,0,0,0,0,0,0,0
2846,384434085002582,-0.022649135440588,0.02848277240991592,0.8126732110977173,0.5815824270248413,0,0,0,0,0,0,0,0,0,0.1299999952316284,0.1800000071525574,0.2300000041723251,0,0,0,0,0,0,0,0,0,-0.07999999821186066,-0.03999999910593033,1,0,0,0,0,0,0,0,0,0
2847,384434108782564,-0.01871111989021301,0.0254841260612011,0.8157323598861694,0.5775648355484009,0,0,0,0,0,0,0,0,0,-0.1700000017881393,-0.009999999776482582,0.2899999916553497,0,0,0,0,0,0,0,0,0,0.05000000074505806,0.02999999932944775,1.080000042915344,0,0,0,0,0,0,0,0,0
2848,384434133240144,-0.01871111989021301,0.0254841260612011,0.8157323598861694,0.5775648355484009,0,0,0,0,0,0,0,0,0,-0.07999999821186066,-0.03999999910593033,0.01999999955296516,0,0,0,0,0,0,0,0,0,-0.03999999910593033,0.009999999776482582,1.240000009536743,0,0,0,0,0,0,0,0,0
2849,384434157352167,-0.01871111989021301,0.0254841260612011,0.8157323598861694,0.5775648355484009,0,0,0,0,0,0,0,0,0,0.1800000071525574,0.1899999976158142,-0.03999999910593033,0,0,0,0,0,0,0,0,0,-0.07000000029802322,0.03999999910593033,1.159999966621399,0,0,0,0,0,0,0,0,0
2850,384434181127619,-0.02279126644134521,0.02836916968226433,0.8155708909034729,0.5775117874145508,0,0,0,0,0,0,0,0,0,0.1899999976158142,0.3300000131130219,0.009999999776482582,0,0,0,0,0,0,0,0,0,-0.1000000014901161,-0.03999999910593033,0.9900000095367432,0,0,0,0,0,0,0,0,0
2851,384434205576957,-0.02279126644134521,0.02836916968226433,0.8155708909034729,0.5775117874145508,0,0,0,0,0,0,0,0,0,-0.1299999952316284,-0.07000000029802322,0.1400000005960464,0,0,0,0,0,0,0,0,0,-0.009999999776482582,0.02999999932944775,1.039999961853027,0,0,0,0,0,0,0,0,0
2852,384434229351016,-0.02279126644134521,0.02836916968226433,0.8155708909034729,0.5775117874145508,0,0,0,0,0,0,0,0,0,-0.03999999910593033,-0.2000000029802322,-0.03999999910593033,0,0,0,0,0,0,0,0,0,-0.07999999821186066,0.02999999932944775,1.309999942779541,0,0,0,0,0,0,0,0,0
2853,384434253499138,-0.01990343444049358,0.03244665265083313,0.8154188990592957,0.5776185393333435,0,0,0,0,0,0,0,0,0,0.2700000107288361,0.3100000023841858,-0.02999999932944775,0,0,0,0,0,0,0,0,0,-0.1099999994039536,0.02999999932944775,1.169999957084656,0,0,0,0,0,0,0,0,0
2854,384434276898759,-0.0239832941442728,0.03533004596829414,0.8152225613594055,0.5775715112686157,0,0,0,0,0,0,0,0,0,0.2599999904632568,0.2000000029802322,0.05000000074505806,0,0,0,0,0,0,0,0,0,-0.1000000014901161,-0.009999999776482582,0.8899999856948853,0,0,0,0,0,0,0,0,0
2855,384434301349240,-0.0239832941442728,0.03533004596829414,0.8152225613594055,0.5775715112686157,0,0,0,0,0,0,0,0,0,-0.1000000014901161,-0.2099999934434891,0.07999999821186066,0,0,0,0,0,0,0,0,0,-0.07999999821186066,0,1.139999985694885,0,0,0,0,0,0,0,0,0
2856,384434325498250,-0.01990343444049358,0.03244665265083313,0.8154188990592957,0.5776185393333435,0,0,0,0,0,0,0,0,0,0.05000000074505806,-0.05000000074505806,0.01999999955296516,0,0,0,0,0,0,0,0,0,-0.07999999821186066,0.03999999910593033,1.179999947547913,0,0,0,0,0,0,0,0,0
2857,384434349249165,-0.0239832941442728,0.03533004596829414,0.8152225613594055,0.5775715112686157,0,0,0,0,0,0,0,0,0,0.1500000059604645,0.1000000014901161,-0.02999999932944775,0,0,0,0,0,0,0,0,0,-0.1599999964237213,-0.009999999776482582,1.090000033378601,0,0,0,0,0,0,0,0,0
2858,384434373373184,-0.0239832941442728,0.03533004596829414,0.8152225613594055,0.5775715112686157,0,0,0,0,0,0,0,0,0,0.1099999994039536,0.1400000005960464,0.1700000017881393,0,0,0,0,0,0,0,0,0,-0.09000000357627869,-0.02999999932944775,1.019999980926514,0,0,0,0,0,0,0,0,0
2859,384434397497294,-0.02415964379906654,0.03520968928933144,0.8181002736091614,0.573488175868988,0,0,0,0,0,0,0,0,0,-0.1599999964237213,-0.01999999955296516,0.2000000029802322,0,0,0,0,0,0,0,0,0,-0.05000000074505806,0.01999999955296516,1.120000004768372,0,0,0,0,0,0,0,0,0
2860,384434421272409,-0.02415964379906654,0.03520968928933144,0.8181002736091614,0.573488175868988,0,0,0,0,0,0,0,0,0,-0,-0.1099999994039536,0.07999999821186066,0,0,0,0,0,0,0,0,0,-0.07000000029802322,0.009999999776482582,1.200000047683716,0,0,0,0,0,0,0,0,0
2861,384434445044849,-0.02415964379906654,0.03520968928933144,0.8181002736091614,0.573488175868988,0,0,0,0,0,0,0,0,0,0.1800000071525574,0.09000000357627869,0.05000000074505806,0,0,0,0,0,0,0,0,0,-0.1000000014901161,0.01999999955296516,1.129999995231628,0,0,0,0,0,0,0,0,0
2862,384434469145294,-0.02433539181947708,0.03508844971656799,0.8209574818611145,0.5693904757499695,0,0,0,0,0,0,0,0,0,0.05000000074505806,0.2899999916553497,0.1500000059604645,0,0,0,0,0,0,0,0,0,-0.01999999955296516,0.009999999776482582,0.9300000071525574,0,0,0,0,0,0,0,0,0
2863,384434492921173,-0.02433539181947708,0.03508844971656799,0.8209574818611145,0.5693904757499695,0,0,0,0,0,0,0,0,0,-0.25,-0.2000000029802322,0.02999999932944775,0,0,0,0,0,0,0,0,0,-0.07000000029802322,0.03999999910593033,1.220000028610229,0,0,0,0,0,0,0,0,0
2864,384434517396449,-0.02022689953446388,0.03224600106477737,0.8211541771888733,0.5694355964660645,0,0,0,0,0,0,0,0,0,0.1500000059604645,-0.2099999934434891,0.01999999955296516,0,0,0,0,0,0,0,0,0,-0.09000000357627869,0.05000000074505806,1.230000019073486,0,0,0,0,0,0,0,0,0
2865,384434540818476,-0.02433539181947708,0.03508844971656799,0.8209574818611145,0.5693904757499695,0,0,0,0,0,0,0,0,0,0.2099999934434891,0.119999997317791,0.01999999955296516,0,0,0,0,0,0,0,0,0,-0.119999997317791,0,0.9599999785423279,0,0,0,0,0,0,0,0,0
2866,384434565295212,-0.02433539181947708,0.03508844971656799,0.8209574818611145,0.5693904757499695,0,0,0,0,0,0,0,0,0,-0.1599999964237213,-0.1299999952316284,0.2000000029802322,0,0,0,0,0,0,0,0,0,-0.07000000029802322,0.05000000074505806,1.059999942779541,0,0,0,0,0,0,0,0,0
2867,384434589394643,-0.02038787677884102,0.0321444608271122,0.8239911198616028,0.5653226971626282,0,0,0,0,0,0,0,0,0,-0.09000000357627869,-0.3400000035762787,0.1400000005960464,0,0,0,0,0,0,0,0,0,-0.07000000029802322,0.05999999865889549,1.179999947547913,0,0,0,0,0,0,0,0,0
2868,384434612843014,-0.01626471616327763,0.02932178787887096,0.8241674900054932,0.565352737903595,0,0,0,0,0,0,0,0,0,0.07999999821186066,-0.2199999988079071,0.119999997317791,0,0,0,0,0,0,0,0,0,-0.1400000005960464,0.05999999865889549,1.129999995231628,0,0,0,0,0,0,0,0,0
2869,384434636942200,-0.01626471616327763,0.02932178787887096,0.8241674900054932,0.565352737903595,0,0,0,0,0,0,0,0,0,0.03999999910593033,0.009999999776482582,0.2300000041723251,0,0,0,0,0,0,0,0,0,-0.1099999994039536,0.05000000074505806,1.019999980926514,0,0,0,0,0,0,0,0,0
2870,384434661068416,-0.01641112379729748,0.02924009785056114,0.8269839882850647,0.5612248182296753,0,0,0,0,0,0,0,0,0,-0.2300000041723251,-0.1599999964237213,0.2700000107288361,0,0,0,0,0,0,0,0,0,-0.1000000014901161,0.05999999865889549,1.169999957084656,0,0,0,0,0,0,0,0,0
2871,384434685190464,-0.01240552496165037,0.02637564763426781,0.829935610294342,0.5570971965789795,0,0,0,0,0,0,0,0,0,0.009999999776482582,-0.4600000083446503,0.3700000047683716,0,0,0,0,0,0,0,0,0,-0.1400000005960464,0.07000000029802322,1.159999966621399,0,0,0,0,0,0,0,0,0
2872,384434708965102,-0.008253618143498898,0.02359295636415482,0.8300708532333374,0.5570976138114929,0,0,0,0,0,0,0,0,0,0.09000000357627869,-0.5899999737739563,0.5099999904632568,0,0,0,0,0,0,0,0,0,-0.07000000029802322,0.05000000074505806,1.120000004768372,0,0,0,0,0,0,0,0,0
2873,384434733103460,-0.001440832391381264,0.02495343238115311,0.83284592628479,0.5529403686523438,0,0,0,0,0,0,0,0,0,0.05000000074505806,-0.2899999916553497,0.449999988079071,0,0,0,0,0,0,0,0,0,-0.01999999955296516,0.009999999776482582,1.080000042915344,0,0,0,0,0,0,0,0,0
2874,384434756865932,-0.004309396259486675,0.02076762169599533,0.8357145190238953,0.5487545132637024,0,0,0,0,0,0,0,0,0,-0.1899999976158142,-0.1899999976158142,0.4799999892711639,0,0,0,0,0,0,0,0,0,-0.02999999932944775,0.02999999932944775,1.070000052452087,0,0,0,0,0,0,0,0,0
2875,384434780965534,-0.0002196766436100006,0.01802460849285126,0.8385410308837891,0.5445402860641479,0,0,0,0,0,0,0,0,0,-0.2000000029802322,-0.3499999940395355,0.3899999856948853,0,0,0,0,0,0,0,0,0,-0.03999999910593033,0.07000000029802322,1.190000057220459,0,0,0,0,0,0,0,0,0
2876,384434805092722,0.003897265065461397,0.01532262843102217,0.8413252234458923,0.5402978658676147,0,0,0,0,0,0,0,0,0,0.1400000005960464,-0.449999988079071,0.3700000047683716,0,0,0,0,0,0,0,0,0,-0.03999999910593033,0.02999999932944775,1.159999966621399,0,0,0,0,0,0,0,0,0
2877,384434829212813,0.01501168496906757,0.01412712596356869,0.8413461446762085,0.5401033163070679,0,0,0,0,0,0,0,0,0,0.3100000023841858,-0.6000000238418579,0.3799999952316284,0,0,0,0,0,0,0,0,0,0.07999999821186066,0.05000000074505806,0.9700000286102295,0,0,0,0,0,0,0,0,0
2878,384434853667510,0.01921766996383667,0.01142560318112373,0.8413686752319336,0.5399989485740662,0,0,0,0,0,0,0,0,0,-0.5199999809265137,-0.2800000011920929,-0.2599999904632568,0,0,0,0,0,0,0,0,0,0.009999999776482582,0.1899999976158142,1.149999976158142,0,0,0,0,0,0,0,0,0
2879,384434877089373,0.005444938316941261,0.008387449197471142,0.838716983795166,0.5444756746292114,0,0,0,0,0,0,0,0,0,-0.300000011920929,1.120000004768372,-0.239999994635582,0,0,0,0,0,0,0,0,0,-0.2000000029802322,-0.03999999910593033,1.289999961853027,0,0,0,0,0,0,0,0,0
2880,384434901214886,-0.01132937055081129,0.01927455887198448,0.8384403586387634,0.5445345044136047,0,0,0,0,0,0,0,0,0,-0.2300000041723251,1.75,0.550000011920929,0,0,0,0,0,0,0,0,0,-0.1000000014901161,-0.02999999932944775,1.159999966621399,0,0,0,0,0,0,0,0,0
2881,384434925337491,-0.0310787670314312,0.02565495856106281,0.8433690071105957,0.5358214974403381,0,0,0,0,0,0,0,0,0,-0.1000000014901161,0.9700000286102295,1.049999952316284,0,0,0,0,0,0,0,0,0,-0.09000000357627869,-0.07000000029802322,1.129999995231628,0,0,0,0,0,0,0,0,0
2882,384434949111597,-0.02854828163981438,0.02972909435629845,0.8458995223045349,0.5317473411560059,0,0,0,0,0,0,0,0,0,0.3100000023841858,0.03999999910593033,0.7900000214576721,0,0,0,0,0,0,0,0,0,-0.1599999964237213,-0,1.080000042915344,0,0,0,0,0,0,0,0,0
2883,384434973560897,-0.02605867199599743,0.03382833674550056,0.8483891487121582,0.5276482105255127,0,0,0,0,0,0,0,0,0,0.4300000071525574,-0.25,1.220000028610229,0,0,0,0,0,0,0,0,0,-0.3499999940395355,-0.1099999994039536,0.9800000190734863,0,0,0,0,0,0,0,0,0
2884,384434997336378,-0.0268961489200592,0.03316636756062508,0.8613138794898987,0.5062757730484009,0,0,0,0,0,0,0,0,0,-0.05999999865889549,-0.2700000107288361,2.599999904632568,0,0,0,0,0,0,0,0,0,-0.1099999994039536,-0.1700000017881393,1.009999990463257,0,0,0,0,0,0,0,0,0
2885,384435021113370,-0.02364456094801426,0.02983063086867332,0.8787028789520264,0.4758490324020386,0,0,0,0,0,0,0,0,0,-0.2300000041723251,-0.3600000143051147,3.029999971389771,0,0,0,0,0,0,0,0,0,0.01999999955296516,0.05000000074505806,1.190000057220459,0,0,0,0,0,0,0,0,0
2886,384435045236373,-0.02006315812468529,0.02686592563986778,0.8927596807479858,0.4492838084697723,0,0,0,0,0,0,0,0,0,-0.1000000014901161,-0,2.660000085830688,0,0,0,0,0,0,0,0,0,-0.03999999910593033,0.09000000357627869,1.230000019073486,0,0,0,0,0,0,0,0,0
2887,384435068683888,-0.01859408430755138,0.03087421506643295,0.9035685658454895,0.4269250929355621,0,0,0,0,0,0,0,0,0,0.05000000074505806,0.2599999904632568,2.519999980926514,0,0,0,0,0,0,0,0,0,-0.05000000074505806,0.009999999776482582,1.100000023841858,0,0,0,0,0,0,0,0,0
2888,384435092786511,-0.01951180398464203,0.03030258417129517,0.9159678220748901,0.3996300399303436,0,0,0,0,0,0,0,0,0,-0.1800000071525574,0.2000000029802322,2.650000095367432,0,0,0,0,0,0,0,0,0,0.07000000029802322,-0.01999999955296516,0.9300000071525574,0,0,0,0,0,0,0,0,0
2889,384435116907263,-0.02214597165584564,0.02517666295170784,0.9258087277412415,0.3765023350715637,0,0,0,0,0,0,0,0,0,-0.4099999964237213,0.07000000029802322,2.210000038146973,0,0,0,0,0,0,0,0,0,0.1400000005960464,0.1500000059604645,1.299999952316284,0,0,0,0,0,0,0,0,0
2890,384435141356628,-0.02070797793567181,0.02949807792901993,0.9312160611152649,0.3626813292503357,0,0,0,0,0,0,0,0,0,0.2099999934434891,0.2000000029802322,1.259999990463257,0,0,0,0,0,0,0,0,0,-0.02999999932944775,0.1700000017881393,1.259999990463257,0,0,0,0,0,0,0,0,0
2891,384435164806207,-0.01906485110521317,0.03405887261033058,0.9328591227531433,0.3581205308437347,0,0,0,0,0,0,0,0,0,0.4799999892711639,0.1500000059604645,0.9800000190734863,0,0,0,0,0,0,0,0,0,-0.1299999952316284,0.02999999932944775,0.9900000095367432,0,0,0,0,0,0,0,0,0
2892,384435189605652,-0.01471967808902264,0.03212926536798477,0.9365659952163696,0.3487049639225006,0,0,0,0,0,0,0,0,0,0.1099999994039536,-0.300000011920929,1.330000042915344,0,0,0,0,0,0,0,0,0,-0,-0.05000000074505806,0.8899999856948853,0,0,0,0,0,0,0,0,0
2893,384435213382768,-0.01216177828609943,0.02552772127091885,0.9419782161712646,0.3344809710979462,0,0,0,0,0,0,0,0,0,-0.5299999713897705,-0.2899999916553497,1.429999947547913,0,0,0,0,0,0,0,0,0,-0.05000000074505806,-0.01999999955296516,1.149999976158142,0,0,0,0,0,0,0,0,0
2894,384435237480017,-0.01899129711091518,0.02211113832890987,0.9484631419181824,0.3155441880226135,0,0,0,0,0,0,0,0,0,-0.4900000095367432,0.4000000059604645,1.769999980926514,0,0,0,0,0,0,0,0,0,-0.07000000029802322,0.1599999964237213,1.279999971389771,0,0,0,0,0,0,0,0,0
2895,384435260930649,-0.01942969113588333,0.02172691561281681,0.9545838832855225,0.2965131103992462,0,0,0,0,0,0,0,0,0,0.1599999964237213,0.449999988079071,1.5,0,0,0,0,0,0,0,0,0,0.2000000029802322,0.1599999964237213,1.100000023841858,0,0,0,0,0,0,0,0,0
2896,384435284707389,-0.01329782605171204,0.02495478466153145,0.9560711979866028,0.2917677164077759,0,0,0,0,0,0,0,0,0,0.1899999976158142,-0.07999999821186066,0.1899999976158142,0,0,0,0,0,0,0,0,0,0.09000000357627869,0.07000000029802322,1.110000014305115,0,0,0,0,0,0,0,0,0
2897,384435308831062,-0.01794688776135445,0.02649954333901405,0.9544633030891418,0.2966065406799316,0,0,0,0,0,0,0,0,0,0.05000000074505806,-0.1299999952316284,0.02999999932944775,0,0,0,0,0,0,0,0,0,-0.2000000029802322,-0.05999999865889549,0.9800000190734863,0,0,0,0,0,0,0,0,0
2898,384435332940307,-0.0131728844717145,0.02502096071839333,0.9546003937721252,0.2965444028377533,0,0,0,0,0,0,0,0,0,-0.3199999928474426,-0.25,0.8199999928474426,0,0,0,0,0,0,0,0,0,-0.1500000059604645,0.05999999865889549,1.110000014305115,0,0,0,0,0,0,0,0,0
2899,384435357406619,-0.0149574913084507,0.02002556435763836,0.959053099155426,0.2821213006973267,0,0,0,0,0,0,0,0,0,-0.3300000131130219,-0.01999999955296516,1.139999985694885,0,0,0,0,0,0,0,0,0,-0.05999999865889549,0.05000000074505806,1.159999966621399,0,0,0,0,0,0,0,0,0
2900,384435380828867,-0.01659450680017471,0.01498284749686718,0.9632638096809387,0.267624706029892,0,0,0,0,0,0,0,0,0,-0.3499999940395355,0.2000000029802322,1.009999990463257,0,0,0,0,0,0,0,0,0,0.01999999955296516,0.009999999776482582,1.080000042915344,0,0,0,0,0,0,0,0,0
2901,384435405627768,-0.01689082384109497,0.01464798115193844,0.9684233069419861,0.2483070939779282,0,0,0,0,0,0,0,0,0,-0.4099999964237213,0.03999999910593033,0.7200000286102295,0,0,0,0,0,0,0,0,0,-0.03999999910593033,-0.09000000357627869,1.139999985694885,0,0,0,0,0,0,0,0,0
2902,384435429054137,-0.01345790736377239,0.008297974243760109,0.9733457565307617,0.2287971973419189,0,0,0,0,0,0,0,0,0,-0.5199999809265137,-0.4699999988079071,0.8899999856948853,0,0,0,0,0,0,0,0,0,-0.03999999910593033,0.05999999865889549,1.169999957084656,0,0,0,0,0,0,0,0,0
2903,384435453526399,-0.008626525290310383,0.007111575920134783,0.9745439887046814,0.2239172458648682,0,0,0,0,0,0,0,0,0,-0.03999999910593033,-0.5199999809265137,0.7099999785423279,0,0,0,0,0,0,0,0,0,-0.02999999932944775,0.1099999994039536,1.149999976158142,0,0,0,0,0,0,0,0,0
2904,384435477301477,-0.003813340794295073,0.005954558495432138,0.9767764210700989,0.2141443938016891,0,0,0,0,0,0,0,0,0,0.009999999776482582,-0.4099999964237213,0.5199999809265137,0,0,0,0,0,0,0,0,0,-0.01999999955296516,0.07000000029802322,1.070000052452087,0,0,0,0,0,0,0,0,0
2905,384435501750271,-0.004913926590234041,0.0009236421901732683,0.9827771782875061,0.1847269088029861,0,0,0,0,0,0,0,0,0,-0.2700000107288361,-0.1800000071525574,0.5699999928474426,0,0,0,0,0,0,0,0,0,-0.05999999865889549,-0.07000000029802322,1.080000042915344,0,0,0,0,0,0,0,0,0
2906,384435525876403,-0.0007758310530334711,-0.004939420614391565,0.9878759384155273,0.1551649272441864,0,0,0,0,0,0,0,0,0,-0.449999988079071,-0.3199999928474426,0.8899999856948853,0,0,0,0,0,0,0,0,0,0.01999999955296516,0.01999999955296516,1.100000023841858,0,0,0,0,0,0,0,0,0
2907,384435549650916,0.004248793236911297,-0.005652086809277534,0.9900762438774109,0.1403528898954391,0,0,0,0,0,0,0,0,0,-0.2599999904632568,-0.4000000059604645,0.5899999737739563,0,0,0,0,0,0,0,0,0,0.03999999910593033,0.07000000029802322,1.200000047683716,0,0,0,0,0,0,0,0,0
2908,384435573477268,0.009004419669508934,-0.006626603193581104,0.9853795766830444,0.1700058132410049,0,0,0,0,0,0,0,0,0,0.01999999955296516,-0.02999999932944775,0.3899999856948853,0,0,0,0,0,0,0,0,0,-0.02999999932944775,0.01999999955296516,1.019999980926514,0,0,0,0,0,0,0,0,0
2909,384435597880137,0.008554979227483273,-0.007197484374046326,0.9722561240196228,0.233651340007782,0,0,0,0,0,0,0,0,0,-0.1599999964237213,-0.03999999910593033,0.449999988079071,0,0,0,0,0,0,0,0,0,-0.07999999821186066,-0.009999999776482582,1.120000004768372,0,0,0,0,0,0,0,0,0
2910,384435621324871,0.009579998441040516,-0.002867104485630989,0.9579679369926453,0.2867009043693542,0,0,0,0,0,0,0,0,0,-0.119999997317791,-0.05000000074505806,0.7599999904632568,0,0,0,0,0,0,0,0,0,-0.1400000005960464,-0.009999999776482582,1.070000052452087,0,0,0,0,0,0,0,0,0
2911,384435645097751,0.009390836581587791,-0.003436399856582284,0.939052402973175,0.3436285257339478,0,0,0,0,0,0,0,0,0,0.1599999964237213,-0.1599999964237213,1.25,0,0,0,0,0,0,0,0,0,-0.01999999955296516,0.01999999955296516,1.129999995231628,0,0,0,0,0,0,0,0,0
2912,384435669548337,0.01104097813367844,0.001757340040057898,0.9535629749298096,0.3009861409664154,0,0,0,0,0,0,0,0,0,0.1800000071525574,-0.07999999821186066,1.120000004768372,0,0,0,0,0,0,0,0,0,0.1000000014901161,0.09000000357627869,0.9800000190734863,0,0,0,0,0,0,0,0,0
2913,384435692976793,0.01581021398305893,9.382283315062523e-05,0.9504538774490356,0.3104633986949921,0,0,0,0,0,0,0,0,0,-0.07000000029802322,0.009999999776482582,0.4600000083446503,0,0,0,0,0,0,0,0,0,-0.02999999932944775,0,1.110000014305115,0,0,0,0,0,0,0,0,0
2914,384435717471941,0.01113180909305811,0.001036471454426646,0.9319989085197449,0.3622884452342987,0,0,0,0,0,0,0,0,0,-0.03999999910593033,0.119999997317791,0.4799999892711639,0,0,0,0,0,0,0,0,0,-0.07000000029802322,-0.05000000074505806,0.9800000190734863,0,0,0,0,0,0,0,0,0
2915,384435741548694,0.01117195375263691,0.0004229624755680561,0.9106737971305847,0.4129747748374939,0,0,0,0,0,0,0,0,0,-0.2800000011920929,-0.1000000014901161,0.800000011920929,0,0,0,0,0,0,0,0,0,-0.1099999994039536,-0.02999999932944775,1.080000042915344,0,0,0,0,0,0,0,0,0
2916,384435764996376,0.01117913145571947,-0.0001359302550554276,0.888895571231842,0.4579733610153198,0,0,0,0,0,0,0,0,0,-0.4199999868869781,0,1.230000019073486,0,0,0,0,0,0,0,0,0,0.009999999776482582,-0.07000000029802322,1.100000023841858,0,0,0,0,0,0,0,0,0
2917,384435790123616,0.009127487428486347,-0.004084806423634291,0.9127182960510254,0.4084670543670654,0,0,0,0,0,0,0,0,0,-0.449999988079071,-0.03999999910593033,0.8799999952316284,0,0,0,0,0,0,0,0,0,0.2000000029802322,-0.03999999910593033,1.100000023841858,0,0,0,0,0,0,0,0,0
2918,384435813571784,0.007041716482490301,-0.008683644235134125,0.9106325507164001,0.4130658507347107,0,0,0,0,0,0,0,0,0,-0.4099999964237213,-0.07999999821186066,0.1299999952316284,0,0,0,0,0,0,0,0,0,0.05999999865889549,-0.09000000357627869,1.200000047683716,0,0,0,0,0,0,0,0,0
2919,384435836996973,0.006508340127766132,-0.00909026712179184,0.8842247724533081,0.4669276773929596,0,0,0,0,0,0,0,0,0,-0.3400000035762787,-0.05999999865889549,0.2800000011920929,0,0,0,0,0,0,0,0,0,-0.07999999821186066,-0.1000000014901161,0.9900000095367432,0,0,0,0,0,0,0,0,0
2920,384435861472072,0.003493131138384342,-0.01370296906679869,0.859725296497345,0.5105608701705933,0,0,0,0,0,0,0,0,0,-0.4900000095367432,-0.1099999994039536,0.6399999856948853,0,0,0,0,0,0,0,0,0,-0.02999999932944775,-0.09000000357627869,1.169999957084656,0,0,0,0,0,0,0,0,0
2921,384435885245242,-0.004202916752547026,-0.01524162478744984,0.8303517699241638,0.5570151805877686,0,0,0,0,0,0,0,0,0,-0.3700000047683716,0.1599999964237213,0.7300000190734863,0,0,0,0,0,0,0,0,0,0.07000000029802322,-0.07000000029802322,1.210000038146973,0,0,0,0,0,0,0,0,0
2922,384435909693625,-0.007948452606797218,-0.01901968941092491,0.8013898134231567,0.5977871417999268,0,0,0,0,0,0,0,0,0,-0.05999999865889549,0.1400000005960464,0.4600000083446503,0,0,0,0,0,0,0,0,0,0.07000000029802322,-0.07999999821186066,1.110000014305115,0,0,0,0,0,0,0,0,0
2923,384435933195687,-0.01274217199534178,-0.01541374996304512,0.770584762096405,0.6370236873626709,0,0,0,0,0,0,0,0,0,-0.1000000014901161,0.1400000005960464,0.25,0,0,0,0,0,0,0,0,0,0.02999999932944775,-0.1000000014901161,1.169999957084656,0,0,0,0,0,0,0,0,0
2924,384435957325034,-0.01687013730406761,-0.01844636350870132,0.7377007603645325,0.6746649146080017,0,0,0,0,0,0,0,0,0,-0.1099999994039536,0.1700000017881393,0.2599999904632568,0,0,0,0,0,0,0,0,0,0,-0.119999997317791,1.169999957084656,0,0,0,0,0,0,0,0,0
2925,384435981449924,-0.02114472165703773,-0.01423864997923374,0.710210382938385,0.7035277485847473,0,0,0,0,0,0,0,0,0,-0.1099999994039536,-0.1500000059604645,0.4199999868869781,0,0,0,0,0,0,0,0,0,-0.03999999910593033,-0.05999999865889549,1.129999995231628,0,0,0,0,0,0,0,0,0
2926,384436005452937,-0.0182903166860342,-0.01703919470310211,0.6814257502555847,0.7314602136611938,0,0,0,0,0,0,0,0,0,0.09000000357627869,-0.300000011920929,0.5600000023841858,0,0,0,0,0,0,0,0,0,0.01999999955296516,-0.07999999821186066,1.190000057220459,0,0,0,0,0,0,0,0,0
2927,384436029593457,-0.01903830654919147,-0.01619915850460529,0.6478312611579895,0.7613735795021057,0,0,0,0,0,0,0,0,0,0.1299999952316284,-0,0.4099999964237213,0,0,0,0,0,0,0,0,0,0.07999999821186066,-0.05999999865889549,1.100000023841858,0,0,0,0,0,0,0,0,0
2928,384436053365093,-0.01573728583753109,-0.01234036032110453,0.6169357895851135,0.7867594361305237,0,0,0,0,0,0,0,0,0,0.1500000059604645,-0,0.119999997317791,0,0,0,0,0,0,0,0,0,0,-0.03999999910593033,1.110000014305115,0,0,0,0,0,0,0,0,0
2929,384436077141253,-0.01621817983686924,-0.01170116476714611,0.5849802494049072,0.8108009099960327,0,0,0,0,0,0,0,0,0,0.1099999994039536,-0.119999997317791,0.2599999904632568,0,0,0,0,0,0,0,0,0,-0.09000000357627869,-0.1000000014901161,1.009999990463257,0,0,0,0,0,0,0,0,0
2930,384436101266019,-0.01656186394393444,-0.01120942831039429,0.560396671295166,0.8279829025268555,0,0,0,0,0,0,0,0,0,-0.09000000357627869,-0.1400000005960464,0.550000011920929,0,0,0,0,0,0,0,0,0,0.009999999776482582,-0.09000000357627869,1.070000052452087,0,0,0,0,0,0,0,0,0
2931,384436125002176,-0.02117917127907276,-0.01327827293425798,0.5310202240943909,0.8469903469085693,0,0,0,0,0,0,0,0,0,-0.1299999952316284,0.05000000074505806,0.4000000059604645,0,0,0,0,0,0,0,0,0,0.07999999821186066,-0.119999997317791,1.139999985694885,0,0,0,0,0,0,0,0,0
2932,384436149488247,-0.02169322036206722,-0.0124207092449069,0.4967248439788818,0.8675479888916016,0,0,0,0,0,0,0,0,0,0.009999999776482582,-0.1500000059604645,0.09000000357627869,0,0,0,0,0,0,0,0,0,0.01999999955296516,-0.07000000029802322,1.090000033378601,0,0,0,0,0,0,0,0,0
2933,384436173291925,-0.02211457118391991,-0.01165399514138699,0.4660626649856567,0.8843985199928284,0,0,0,0,0,0,0,0,0,0.07999999821186066,-0.1800000071525574,0.03999999910593033,0,0,0,0,0,0,0,0,0,-0.1000000014901161,-0.1299999952316284,1,0,0,0,0,0,0,0,0,0
2934,384436197350694,-0.02239897847175598,-0.01109754666686058,0.4438093900680542,0.8957724571228027,0,0,0,0,0,0,0,0,0,-0.2099999934434891,0.03999999910593033,0.4199999868869781,0,0,0,0,0,0,0,0,0,-0.009999999776482582,-0.05999999865889549,1.029999971389771,0,0,0,0,0,0,0,0,0
2935,384436221512529,-0.02726488187909126,-0.01250424794852734,0.4166832268238068,0.9085567593574524,0,0,0,0,0,0,0,0,0,-0.1700000017881393,0.1000000014901161,0.1700000017881393,0,0,0,0,0,0,0,0,0,0.03999999910593033,-0.05999999865889549,1.200000047683716,0,0,0,0,0,0,0,0,0
2936,384436244937550,-0.02957354485988617,-0.007077436894178391,0.3893763720989227,0.9205765724182129,0,0,0,0,0,0,0,0,0,-0.01999999955296516,0.02999999932944775,0.07000000029802322,0,0,0,0,0,0,0,0,0,-0.03999999910593033,-0.1800000071525574,1.070000052452087,0,0,0,0,0,0,0,0,0
2937,384436269062282,-0.02796562388539314,-0.01084683556109667,0.361452728509903,0.9319078326225281,0,0,0,0,0,0,0,0,0,-0.03999999910593033,-0.1899999976158142,0.1299999952316284,0,0,0,0,0,0,0,0,0,0.03999999910593033,-0.07999999821186066,1.070000052452087,0,0,0,0,0,0,0,0,0
2938,384436293188143,-0.02827839739620686,-0.01000311225652695,0.3333370387554169,0.9423304796218872,0,0,0,0,0,0,0,0,0,-0.05999999865889549,-0.01999999955296516,-0.1099999994039536,0,0,0,0,0,0,0,0,0,-0.02999999932944775,-0.09000000357627869,1.139999985694885,0,0,0,0,0,0,0,0,0
2939,384436316960729,-0.03006763383746147,-0.00454116053879261,0.3098157942295074,0.9503101706504822,0,0,0,0,0,0,0,0,0,0.02999999932944775,0.2800000011920929,0.1599999964237213,0,0,0,0,0,0,0,0,0,-0.009999999776482582,-0.119999997317791,1.159999966621399,0,0,0,0,0,0,0,0,0
2940,384436341063152,-0.03017175570130348,-0.003788128029555082,0.2859636843204498,0.957757830619812,0,0,0,0,0,0,0,0,0,0.1899999976158142,-0.009999999776482582,0.07999999821186066,0,0,0,0,0,0,0,0,0,0.1000000014901161,-0.1000000014901161,1.129999995231628,0,0,0,0,0,0,0,0,0
2941,384436365185039,-0.03027180396020412,-0.002881407272070646,0.257106602191925,0.9659044742584229,0,0,0,0,0,0,0,0,0,0.2300000041723251,-0.1500000059604645,-0.3300000131130219,0,0,0,0,0,0,0,0,0,-0.009999999776482582,-0.1000000014901161,1.059999942779541,0,0,0,0,0,0,0,0,0
2942,384436389266832,-0.03033437207341194,-0.002123790327459574,0.2328811436891556,0.9720296263694763,0,0,0,0,0,0,0,0,0,0.009999999776482582,0.05999999865889549,-0.1000000014901161,0,0,0,0,0,0,0,0,0,-0.07000000029802322,-0.05999999865889549,1.059999942779541,0,0,0,0,0,0,0,0,0
2943,384436413461607,-0.03037077933549881,-0.001516718883067369,0.2133952975273132,0.9764925837516785,0,0,0,0,0,0,0,0,0,-0.09000000357627869,0.2199999988079071,0.1599999964237213,0,0,0,0,0,0,0,0,0,-0.009999999776482582,-0.03999999910593033,1.159999966621399,0,0,0,0,0,0,0,0,0
2944,384436437532585,-0.03136230632662773,0.003994065802544355,0.1939639300107956,0.9804990887641907,0,0,0,0,0,0,0,0,0,0.03999999910593033,0.1599999964237213,0.1000000014901161,0,0,0,0,0,0,0,0,0,0.02999999932944775,-0.01999999955296516,1.110000014305115,0,0,0,0,0,0,0,0,0
2945,384436461308638,-0.03040826506912708,-0.0001489594578742981,0.1692519187927246,0.9851036071777344,0,0,0,0,0,0,0,0,0,0.07999999821186066,-0.1599999964237213,-0.05999999865889549,0,0,0,0,0,0,0,0,0,-0.01999999955296516,-0.05000000074505806,1.080000042915344,0,0,0,0,0,0,0,0,0
2946,384436485082133,-0.02546906284987926,0.001079440815374255,0.1544534116983414,0.9876710772514343,0,0,0,0,0,0,0,0,0,-0.02999999932944775,0.01999999955296516,0.03999999910593033,0,0,0,0,0,0,0,0,0,-0.07000000029802322,0.009999999776482582,1.070000052452087,0,0,0,0,0,0,0,0,0
2947,384436509206211,-0.03109531849622726,0.005712083075195551,0.1397703588008881,0.9896790981292725,0,0,0,0,0,0,0,0,0,-0.1899999976158142,0.2599999904632568,0.25,0,0,0,0,0,0,0,0,0,-0.02999999932944775,-0.03999999910593033,1.149999976158142,0,0,0,0,0,0,0,0,0
2948,384436532992000,-0.03100614249706268,0.006177852861583233,0.1249100044369698,0.9916642308235168,0,0,0,0,0,0,0,0,0,0,0.05000000074505806,0.1800000071525574,0,0,0,0,0,0,0,0,0,0.03999999910593033,-0.05999999865889549,1.090000033378601,0,0,0,0,0,0,0,0,0
2949,384436557461572,-0.03087639436125755,0.006796699017286301,0.1050530672073364,0.9939639568328857,0,0,0,0,0,0,0,0,0,0.02999999932944775,-0.1400000005960464,0.05000000074505806,0,0,0,0,0,0,0,0,0,-0.03999999910593033,-0.1099999994039536,1.120000004768372,0,0,0,0,0,0,0,0,0
2950,384436581205098,-0.03077097237110138,0.007259062491357327,0.09013235569000244,0.9954278469085693,0,0,0,0,0,0,0,0,0,-0.07999999821186066,0.239999994635582,0.1099999994039536,0,0,0,0,0,0,0,0,0,0,-0.05000000074505806,1.179999947547913,0,0,0,0,0,0,0,0,0
2951,384436605689680,-0.03096730820834637,0.01285823620855808,0.07035233080387115,0.9969585537910461,0,0,0,0,0,0,0,0,0,-0.05999999865889549,0.2800000011920929,0.02999999932944775,0,0,0,0,0,0,0,0,0,-0.01999999955296516,-0.07999999821186066,1.190000057220459,0,0,0,0,0,0,0,0,0
2952,384436629100908,-0.03077095560729504,0.0133212823420763,0.05539059638977051,0.9979016184806824,0,0,0,0,0,0,0,0,0,-0.02999999932944775,-0.07000000029802322,0.07000000029802322,0,0,0,0,0,0,0,0,0,-0.01999999955296516,-0.1099999994039536,1.120000004768372,0,0,0,0,0,0,0,0,0
2953,384436653228552,-0.03536275774240494,0.008586443960666656,0.04031249135732651,0.9985242486000061,0,0,0,0,0,0,0,0,0,-0.119999997317791,-0.05000000074505806,0.1000000014901161,0,0,0,0,0,0,0,0,0,0.009999999776482582,-0.09000000357627869,1.190000057220459,0,0,0,0,0,0,0,0,0
2954,384436677354127,-0.03535269945859909,0.01411093398928642,0.0255039855837822,0.9989497661590576,0,0,0,0,0,0,0,0,0,-0.1400000005960464,0.02999999932944775,-0.01999999955296516,0,0,0,0,0,0,0,0,0,-0.009999999776482582,-0.09000000357627869,1.090000033378601,0,0,0,0,0,0,0,0,0
2955,384436701455131,-0.04003679379820824,0.009791773743927479,0.00539561128243804,0.9991356134414673,0,0,0,0,0,0,0,0,0,-0.1700000017881393,-0.09000000357627869,-0,0,0,0,0,0,0,0,0,0,0,-0.1000000014901161,1.220000028610229,0,0,0,0,0,0,0,0,0
2956,384436725928559,-0.03993687406182289,0.01019164454191923,-0.004595848266035318,0.999139666557312,0,0,0,0,0,0,0,0,0,-0.05000000074505806,0.05000000074505806,-0.01999999955296516,0,0,0,0,0,0,0,0,0,0.01999999955296516,-0.01999999955296516,1.110000014305115,0,0,0,0,0,0,0,0,0
2957,384436749705281,-0.03977951034903526,0.01078952942043543,-0.0195818617939949,0.9989583492279053,0,0,0,0,0,0,0,0,0,-0.07999999821186066,-0.1700000017881393,-0.239999994635582,0,0,0,0,0,0,0,0,0,-0.03999999910593033,-0.07000000029802322,1.080000042915344,0,0,0,0,0,0,0,0,0
2958,384436773804607,-0.03961319848895073,0.01138498540967703,-0.03456347435712814,0.9985522627830505,0,0,0,0,0,0,0,0,0,-0.1000000014901161,-0.03999999910593033,-0.07999999821186066,0,0,0,0,0,0,0,0,0,-0.01999999955296516,-0.1500000059604645,1.090000033378601,0,0,0,0,0,0,0,0,0
2959,384436797578467,-0.03943797573447227,0.01197788026183844,-0.0495373047888279,0.9979214668273926,0,0,0,0,0,0,0,0,0,-0.119999997317791,0.05999999865889549,-0.07999999821186066,0,0,0,0,0,0,0,0,0,0.009999999776482582,-0.07000000029802322,1.120000004768372,0,0,0,0,0,0,0,0,0
2960,384436821702026,-0.03931622952222824,0.01237165462225676,-0.0595138780772686,0.9973762035369873,0,0,0,0,0,0,0,0,0,0.05000000074505806,0.02999999932944775,-0.1899999976158142,0,0,0,0,0,0,0,0,0,-0.09000000357627869,-0.09000000357627869,1.120000004768372,0,0,0,0,0,0,0,0,0
2961,384436845825919,-0.03919054940342903,0.01276419218629599,-0.06948450207710266,0.9967312216758728,0,0,0,0,0,0,0,0,0,0,0.01999999955296516,0.2300000041723251,0,0,0,0,0,0,0,0,0,-0.05999999865889549,-0.119999997317791,1.019999980926514,0,0,0,0,0,0,0,0,0
2962,384436869251284,-0.03912623599171638,0.0129599841311574,-0.07446726411581039,0.996371328830719,0,0,0,0,0,0,0,0,0,-0.1500000059604645,-0,0.4199999868869781,0,0,0,0,0,0,0,0,0,0,-0.119999997317791,1.080000042915344,0,0,0,0,0,0,0,0,0
2963,384436893375447,-0.04397206380963326,0.01377255842089653,-0.08435928076505661,0.9953694343566895,0,0,0,0,0,0,0,0,0,-0.1899999976158142,0.1000000014901161,0.3899999856948853,0,0,0,0,0,0,0,0,0,0.02999999932944775,-0.1299999952316284,1.139999985694885,0,0,0,0,0,0,0,0,0
2964,384436917499251,-0.04383214190602303,0.01421158388257027,-0.09430859237909317,0.9944760799407959,0,0,0,0,0,0,0,0,0,0,-0.03999999910593033,0.2000000029802322,0,0,0,0,0,0,0,0,0,0.01999999955296516,-0.1000000014901161,1.100000023841858,0,0,0,0,0,0,0,0,0
2965,384436941600080,-0.04368783533573151,0.01464918721467257,-0.104248471558094,0.993483304977417,0,0,0,0,0,0,0,0,0,0.03999999910593033,-0.07000000029802322,0.1099999994039536,0,0,0,0,0,0,0,0,0,-0.05999999865889549,-0.1000000014901161,1.070000052452087,0,0,0,0,0,0,0,0,0
2966,384436965373418,-0.04361404106020927,0.0148674426600337,-0.1092145591974258,0.9929496645927429,0,0,0,0,0,0,0,0,0,-0.1099999994039536,0.05999999865889549,0.3199999928474426,0,0,0,0,0,0,0,0,0,-0.02999999932944775,-0.1099999994039536,1.009999990463257,0,0,0,0,0,0,0,0,0
2967,384436989818872,-0.04850054904818535,0.01565602421760559,-0.1141010746359825,0.9921610355377197,0,0,0,0,0,0,0,0,0,-0.2000000029802322,0.009999999776482582,0.2800000011920929,0,0,0,0,0,0,0,0,0,0.009999999776482582,-0.09000000357627869,1.179999947547913,0,0,0,0,0,0,0,0,0
2968,384437013273155,-0.04842166230082512,0.0158983301371336,-0.1190604269504547,0.9915781617164612,0,0,0,0,0,0,0,0,0,0.05000000074505806,0.07000000029802322,0.1700000017881393,0,0,0,0,0,0,0,0,0,-0.01999999955296516,-0.119999997317791,1.139999985694885,0,0,0,0,0,0,0,0,0
2969,384437037447726,-0.04826026037335396,0.01638174429535866,-0.1289700865745544,0.9903379678726196,0,0,0,0,0,0,0,0,0,0.009999999776482582,-0.1500000059604645,0.1700000017881393,0,0,0,0,0,0,0,0,0,-0.02999999932944775,-0.1400000005960464,1.059999942779541,0,0,0,0,0,0,0,0,0
2970,384437061526564,-0.04817774891853333,0.01662284135818481,-0.1339201480150223,0.9896807670593262,0,0,0,0,0,0,0,0,0,-0.07999999821186066,0.05000000074505806,0.1800000071525574,0,0,0,0,0,0,0,0,0,-0.03999999910593033,-0.1000000014901161,1.159999966621399,0,0,0,0,0,0,0,0,0
2971,384437085621547,-0.04739415273070335,0.02180758491158485,-0.1386107206344604,0.9889718890190125,0,0,0,0,0,0,0,0,0,0.02999999932944775,0.1400000005960464,0.1599999964237213,0,0,0,0,0,0,0,0,0,-0.07000000029802322,-0.1700000017881393,1.090000033378601,0,0,0,0,0,0,0,0,0
2972,384437109070341,-0.04728452488780022,0.02204428240656853,-0.1435538232326508,0.9882664084434509,0,0,0,0,0,0,0,0,0,0.03999999910593033,-0.1400000005960464,0.239999994635582,0,0,0,0,0,0,0,0,0,0.01999999955296516,-0.1899999976158142,1.169999957084656,0,0,0,0,0,0,0,0,0
2973,384437133607617,-0.04783568158745766,0.01758300513029099,-0.1536856591701508,0.9868045449256897,0,0,0,0,0,0,0,0,0,0.1599999964237213,-0.2000000029802322,-0.03999999910593033,0,0,0,0,0,0,0,0,0,-0.01999999955296516,-0.05999999865889549,1.070000052452087,0,0,0,0,0,0,0,0,0
2974,384437157248068,-0.04290108382701874,0.01681436225771904,-0.1537716686725616,0.9870314598083496,0,0,0,0,0,0,0,0,0,0.1000000014901161,-0.09000000357627869,0.009999999776482582,0,0,0,0,0,0,0,0,0,-0.1899999976158142,-0.09000000357627869,1.059999942779541,0,0,0,0,0,0,0,0,0
2975,384437181447595,-0.04694855213165283,0.02275104261934757,-0.1583611220121384,0.9860020279884338,0,0,0,0,0,0,0,0,0,-0.05999999865889549,0.05000000074505806,0.5699999928474426,0,0,0,0,0,0,0,0,0,0.01999999955296516,-0.1899999976158142,1.029999971389771,0,0,0,0,0,0,0,0,0
2976,384437205523776,-0.04756656661629677,0.01829853653907776,-0.1684698909521103,0.9843884110450745,0,0,0,0,0,0,0,0,0,-0.119999997317791,-0.1000000014901161,0.1899999976158142,0,0,0,0,0,0,0,0,0,0.1099999994039536,-0.1400000005960464,1.120000004768372,0,0,0,0,0,0,0,0,0
2977,384437229995256,-0.04747447744011879,0.01853613927960396,-0.1733896881341934,0.9835337400436401,0,0,0,0,0,0,0,0,0,0.1400000005960464,-0.03999999910593033,-0.1700000017881393,0,0,0,0,0,0,0,0,0,-0.09000000357627869,-0.03999999910593033,1.039999961853027,0,0,0,0,0,0,0,0,0
2978,384437253442735,-0.04255623742938042,0.0176689624786377,-0.173480212688446,0.983758807182312,0,0,0,0,0,0,0,0,0,0.07999999821186066,-0.05000000074505806,0.2700000107288361,0,0,0,0,0,0,0,0,0,-0.1000000014901161,-0.119999997317791,0.949999988079071,0,0,0,0,0,0,0,0,0
2979,384437277191468,-0.0473812036216259,0.01877328008413315,-0.1783051937818527,0.9826544523239136,0,0,0,0,0,0,0,0,0,-0.1000000014901161,0.07999999821186066,0.4300000071525574,0,0,0,0,0,0,0,0,0,0.07000000029802322,-0.07999999821186066,1.129999995231628,0,0,0,0,0,0,0,0,0
2980,384437301665760,-0.04157042503356934,0.02279486879706383,-0.1781643927097321,0.9828580021858215,0,0,0,0,0,0,0,0,0,0.1099999994039536,0.239999994635582,0.01999999955296516,0,0,0,0,0,0,0,0,0,-0.02999999932944775,-0.07000000029802322,1.039999961853027,0,0,0,0,0,0,0,0,0
2981,384437325767961,-0.04145593568682671,0.02300243638455868,-0.183076411485672,0.9819548726081848,0,0,0,0,0,0,0,0,0,0.1000000014901161,-0.1099999994039536,0.1899999976158142,0,0,0,0,0,0,0,0,0,-0.09000000357627869,-0.1599999964237213,1,0,0,0,0,0,0,0,0,0
2982,384437349216737,-0.04145593568682671,0.02300243638455868,-0.183076411485672,0.9819548726081848,0,0,0,0,0,0,0,0,0,-0.02999999932944775,0.009999999776482582,0.300000011920929,0,0,0,0,0,0,0,0,0,0.02999999932944775,-0.1299999952316284,1.129999995231628,0,0,0,0,0,0,0,0,0
2983,384437372991365,-0.04624500125646591,0.02414905279874802,-0.1878654956817627,0.9808081984519958,0,0,0,0,0,0,0,0,0,-0.009999999776482582,0.2800000011920929,0.07999999821186066,0,0,0,0,0,0,0,0,0,-0.02999999932944775,-0.1099999994039536,1.090000033378601,0,0,0,0,0,0,0,0,0
2984,384437397439458,-0.04025227576494217,0.02831459417939186,-0.1926490813493729,0.9800328612327576,0,0,0,0,0,0,0,0,0,0.03999999910593033,0.1000000014901161,0.1800000071525574,0,0,0,0,0,0,0,0,0,-0.05999999865889549,-0.1099999994039536,1.139999985694885,0,0,0,0,0,0,0,0,0
2985,384437421214211,-0.04011020064353943,0.02851549908518791,-0.1975468099117279,0.9790573716163635,0,0,0,0,0,0,0,0,0,0.1000000014901161,0.09000000357627869,0.1899999976158142,0,0,0,0,0,0,0,0,0,0,-0.1299999952316284,1.149999976158142,0,0,0,0,0,0,0,0,0
2986,384437445339170,-0.0399671196937561,0.02871569246053696,-0.202439621090889,0.9780574440956116,0,0,0,0,0,0,0,0,0,0.03999999910593033,0.05000000074505806,0.03999999910593033,0,0,0,0,0,0,0,0,0,-0.02999999932944775,-0.1000000014901161,1.120000004768372,0,0,0,0,0,0,0,0,0
2987,384437469465495,-0.03982304409146309,0.0289151668548584,-0.2073273509740829,0.9770329594612122,0,0,0,0,0,0,0,0,0,0.1400000005960464,-0,0.03999999910593033,0,0,0,0,0,0,0,0,0,-0.05999999865889549,-0.119999997317791,1.139999985694885,0,0,0,0,0,0,0,0,0
2988,384437493237352,-0.03982304409146309,0.0289151668548584,-0.2073273509740829,0.9770329594612122,0,0,0,0,0,0,0,0,0,0.1599999964237213,0.01999999955296516,0.1000000014901161,0,0,0,0,0,0,0,0,0,-0.03999999910593033,-0.119999997317791,1.029999971389771,0,0,0,0,0,0,0,0,0
2989,384437517337294,-0.03967797011137009,0.02911392226815224,-0.2122098952531815,0.9759840965270996,0,0,0,0,0,0,0,0,0,-0.03999999910593033,0.009999999776482582,0.07999999821186066,0,0,0,0,0,0,0,0,0,-0.07000000029802322,-0.05999999865889549,1.019999980926514,0,0,0,0,0,0,0,0,0
2990,384437541111907,-0.03967797011137009,0.02911392226815224,-0.2122098952531815,0.9759840965270996,0,0,0,0,0,0,0,0,0,-0.07000000029802322,0.02999999932944775,0.2099999934434891,0,0,0,0,0,0,0,0,0,-0.09000000357627869,-0.1400000005960464,1.110000014305115,0,0,0,0,0,0,0,0,0
2991,384437565236427,-0.03843719884753227,0.03418415039777756,-0.2168431729078293,0.9748502373695374,0,0,0,0,0,0,0,0,0,0.009999999776482582,0.1599999964237213,0.3400000035762787,0,0,0,0,0,0,0,0,0,0.009999999776482582,-0.1700000017881393,1.049999952316284,0,0,0,0,0,0,0,0,0
2992,384437589011677,-0.03826579824090004,0.03437590971589088,-0.2217146903276443,0.973753809928894,0,0,0,0,0,0,0,0,0,-0.1000000014901161,0.07999999821186066,0.07000000029802322,0,0,0,0,0,0,0,0,0,-0.01999999955296516,-0.09000000357627869,1.029999971389771,0,0,0,0,0,0,0,0,0
2993,384437613811250,-0.03826579824090004,0.03437590971589088,-0.2217146903276443,0.973753809928894,0,0,0,0,0,0,0,0,0,-0.1099999994039536,0.01999999955296516,0.03999999910593033,0,0,0,0,0,0,0,0,0,-0.1500000059604645,-0.07999999821186066,1.070000052452087,0,0,0,0,0,0,0,0,0
2994,384437637259169,-0.04313406348228455,0.03548404574394226,-0.2215400487184525,0.9735503196716309,0,0,0,0,0,0,0,0,0,-0.1000000014901161,0.1299999952316284,0.3899999856948853,0,0,0,0,0,0,0,0,0,-0.01999999955296516,-0.1500000059604645,1.100000023841858,0,0,0,0,0,0,0,0,0
2995,384437661711248,-0.04181138426065445,0.040558110922575,-0.226130485534668,0.9723537564277649,0,0,0,0,0,0,0,0,0,-0.1500000059604645,0.239999994635582,0.1700000017881393,0,0,0,0,0,0,0,0,0,0.02999999932944775,-0.07999999821186066,1.120000004768372,0,0,0,0,0,0,0,0,0
2996,384437685813240,-0.04181138426065445,0.040558110922575,-0.226130485534668,0.9723537564277649,0,0,0,0,0,0,0,0,0,-0.009999999776482582,0.009999999776482582,-0.1000000014901161,0,0,0,0,0,0,0,0,0,-0.1000000014901161,-0.03999999910593033,1.139999985694885,0,0,0,0,0,0,0,0,0
2997,384437709609683,-0.04181138426065445,0.040558110922575,-0.226130485534668,0.9723537564277649,0,0,0,0,0,0,0,0,0,0.1000000014901161,-0.01999999955296516,0.1599999964237213,0,0,0,0,0,0,0,0,0,-0.1000000014901161,-0.05999999865889549,1.080000042915344,0,0,0,0,0,0,0,0,0
2998,384437733800722,-0.03694912046194077,0.03942695632576942,-0.2263304591178894,0.9725506901741028,0,0,0,0,0,0,0,0,0,-0.05999999865889549,0.03999999910593033,0.2099999934434891,0,0,0,0,0,0,0,0,0,0,-0.05999999865889549,1.129999995231628,0,0,0,0,0,0,0,0,0
2999,384437757916864,-0.03675152733922005,0.03961120918393135,-0.2311903536319733,0.971406877040863,0,0,0,0,0,0,0,0,0,0.03999999910593033,0.1000000014901161,0,0,0,0,0,0,0,0,0,0,-0.05000000074505806,-0.05999999865889549,1.179999947547913,0,0,0,0,0,0,0,0,0
3000,384437781350816,-0.03675152733922005,0.03961120918393135,-0.2311903536319733,0.971406877040863,0,0,0,0,0,0,0,0,0,0.2099999934434891,-0.07000000029802322,0.05999999865889549,0,0,0,0,0,0,0,0,0,-0.07000000029802322,-0.09000000357627869,1.049999952316284,0,0,0,0,0,0,0,0,0
3001,384437805516388,-0.03655301034450531,0.03979447111487389,-0.2360444813966751,0.9702388048171997,0,0,0,0,0,0,0,0,0,0.05000000074505806,-0.1899999976158142,0.119999997317791,0,0,0,0,0,0,0,0,0,-0.05000000074505806,-0.07999999821186066,1.070000052452087,0,0,0,0,0,0,0,0,0
3002,384437829571633,-0.03774587064981461,0.0349460057914257,-0.2362955063581467,0.9703187346458435,0,0,0,0,0,0,0,0,0,-0.05000000074505806,-0.1800000071525574,0.03999999910593033,0,0,0,0,0,0,0,0,0,-0.05000000074505806,-0.07000000029802322,1.149999976158142,0,0,0,0,0,0,0,0,0
3003,384437853655303,-0.03757067024707794,0.03513430058956146,-0.241144135594368,0.9691250920295715,0,0,0,0,0,0,0,0,0,0.01999999955296516,-0.300000011920929,0.1099999994039536,0,0,0,0,0,0,0,0,0,-0.09000000357627869,-0.1500000059604645,1.039999961853027,0,0,0,0,0,0,0,0,0
3004,384437877491018,-0.03878682851791382,0.03029098175466061,-0.2413895428180695,0.9691795706748962,0,0,0,0,0,0,0,0,0,-0.119999997317791,-0.2800000011920929,0.2800000011920929,0,0,0,0,0,0,0,0,0,-0.02999999932944775,-0.119999997317791,1.330000042915344,0,0,0,0,0,0,0,0,0
3005,384437901585378,-0.03878682851791382,0.03029098175466061,-0.2413895428180695,0.9691795706748962,0,0,0,0,0,0,0,0,0,0.1400000005960464,0.2000000029802322,0.1599999964237213,0,0,0,0,0,0,0,0,0,-0.05000000074505806,-0.07000000029802322,1.120000004768372,0,0,0,0,0,0,0,0,0
3006,384437925679978,-0.03394046053290367,0.02908365987241268,-0.2415380030870438,0.969361424446106,0,0,0,0,0,0,0,0,0,0.1099999994039536,-0.1800000071525574,0.119999997317791,0,0,0,0,0,0,0,0,0,-0.119999997317791,-0.1500000059604645,1.009999990463257,0,0,0,0,0,0,0,0,0
3007,384437949838778,-0.03394046053290367,0.02908365987241268,-0.2415380030870438,0.969361424446106,0,0,0,0,0,0,0,0,0,-0,-0.239999994635582,0.2800000011920929,0,0,0,0,0,0,0,0,0,-0.05999999865889549,-0.1000000014901161,1.159999966621399,0,0,0,0,0,0,0,0,0
3008,384437973573094,-0.03394046053290367,0.02908365987241268,-0.2415380030870438,0.969361424446106,0,0,0,0,0,0,0,0,0,-0.05000000074505806,0.02999999932944775,0.1599999964237213,0,0,0,0,0,0,0,0,0,-0.09000000357627869,-0.05000000074505806,1.100000023841858,0,0,0,0,0,0,0,0,0
3009,384437997590418,-0.03878682851791382,0.03029098175466061,-0.2413895428180695,0.9691795706748962,0,0,0,0,0,0,0,0,0,-0.05999999865889549,-0.1400000005960464,0.25,0,0,0,0,0,0,0,0,0,-0.07999999821186066,-0.1099999994039536,1.080000042915344,0,0,0,0,0,0,0,0,0
3010,384438021431890,-0.04000201821327209,0.02544690668582916,-0.2416289448738098,0.9692098498344421,0,0,0,0,0,0,0,0,0,-0.05999999865889549,-0.25,0.3100000023841858,0,0,0,0,0,0,0,0,0,-0.009999999776482582,-0.07999999821186066,1.210000038146973,0,0,0,0,0,0,0,0,0
3011,384438045527422,-0.03515548259019852,0.02423844859004021,-0.2417531609535217,0.9693977832794189,0,0,0,0,0,0,0,0,0,0.09000000357627869,-0,0.1700000017881393,0,0,0,0,0,0,0,0,0,-0.03999999910593033,-0.09000000357627869,1.110000014305115,0,0,0,0,0,0,0,0,0
3012,384438069652697,-0.03515548259019852,0.02423844859004021,-0.2417531609535217,0.9693977832794189,0,0,0,0,0,0,0,0,0,0.07999999821186066,-0.07000000029802322,0.1800000071525574,0,0,0,0,0,0,0,0,0,-0.03999999910593033,-0.05999999865889549,1.149999976158142,0,0,0,0,0,0,0,0,0
3013,384438093428978,-0.03515548259019852,0.02423844859004021,-0.2417531609535217,0.9693977832794189,0,0,0,0,0,0,0,0,0,0.239999994635582,-0.02999999932944775,0.1800000071525574,0,0,0,0,0,0,0,0,0,-0.05000000074505806,-0.05999999865889549,1.049999952316284,0,0,0,0,0,0,0,0,0
3014,384438117552444,-0.03515548259019852,0.02423844859004021,-0.2417531609535217,0.9693977832794189,0,0,0,0,0,0,0,0,0,-0.07000000029802322,-0.1099999994039536,0.2700000107288361,0,0,0,0,0,0,0,0,0,-0.07999999821186066,-0.119999997317791,1.070000052452087,0,0,0,0,0,0,0,0,0
3015,384438141609257,-0.03515548259019852,0.02423844859004021,-0.2417531609535217,0.9693977832794189,0,0,0,0,0,0,0,0,0,-0.1500000059604645,-0.07999999821186066,0.4699999988079071,0,0,0,0,0,0,0,0,0,0.05999999865889549,-0.1400000005960464,1.259999990463257,0,0,0,0,0,0,0,0,0
3016,384438165774163,-0.03636962175369263,0.01939263194799423,-0.2419622540473938,0.9694098234176636,0,0,0,0,0,0,0,0,0,0.1500000059604645,-0.01999999955296516,0.1800000071525574,0,0,0,0,0,0,0,0,0,0.07000000029802322,-0.1000000014901161,1.120000004768372,0,0,0,0,0,0,0,0,0
3017,384438189899924,-0.03627220168709755,0.01957423612475395,-0.2468062490224838,0.9681879281997681,0,0,0,0,0,0,0,0,0,0.1700000017881393,-0.2300000041723251,-0.01999999955296516,0,0,0,0,0,0,0,0,0,-0.03999999910593033,-0.1099999994039536,1.059999942779541,0,0,0,0,0,0,0,0,0
3018,384438214000421,-0.03143083304166794,0.01833996549248695,-0.2469010353088379,0.9683571457862854,0,0,0,0,0,0,0,0,0,-0.02999999932944775,-0.2199999988079071,0.1500000059604645,0,0,0,0,0,0,0,0,0,-0.02999999932944775,-0.05999999865889549,1.179999947547913,0,0,0,0,0,0,0,0,0
3019,384438237448912,-0.0326683297753334,0.01349883712828159,-0.2470798194408417,0.9683501720428467,0,0,0,0,0,0,0,0,0,0.07999999821186066,-0.07999999821186066,0.1700000017881393,0,0,0,0,0,0,0,0,0,0.009999999776482582,-0.09000000357627869,1.139999985694885,0,0,0,0,0,0,0,0,0
3020,384438261547816,-0.0326683297753334,0.01349883712828159,-0.2470798194408417,0.9683501720428467,0,0,0,0,0,0,0,0,0,0.03999999910593033,-0.05999999865889549,0.1599999964237213,0,0,0,0,0,0,0,0,0,-0.009999999776482582,-0.119999997317791,1.090000033378601,0,0,0,0,0,0,0,0,0
3021,384438285673965,-0.0326683297753334,0.01349883712828159,-0.2470798194408417,0.9683501720428467,0,0,0,0,0,0,0,0,0,-0.009999999776482582,-0.25,0.1500000059604645,0,0,0,0,0,0,0,0,0,-0.01999999955296516,-0.07999999821186066,1.049999952316284,0,0,0,0,0,0,0,0,0
3022,384438309803483,-0.03390501067042351,0.008657370693981647,-0.2472524493932724,0.9683189988136292,0,0,0,0,0,0,0,0,0,-0.009999999776482582,-0.300000011920929,0.1099999994039536,0,0,0,0,0,0,0,0,0,-0.03999999910593033,-0.1099999994039536,1.129999995231628,0,0,0,0,0,0,0,0,0
3023,384438333990755,-0.03874616324901581,0.009893519803881645,-0.247206062078476,0.9681373834609985,0,0,0,0,0,0,0,0,0,-0.07999999821186066,-0.01999999955296516,0.2199999988079071,0,0,0,0,0,0,0,0,0,0,-0.1299999952316284,1.129999995231628,0,0,0,0,0,0,0,0,0
3024,384438357778764,-0.03874616324901581,0.009893519803881645,-0.247206062078476,0.9681373834609985,0,0,0,0,0,0,0,0,0,-0.09000000357627869,-0.1000000014901161,0.1299999952316284,0,0,0,0,0,0,0,0,0,0.03999999910593033,-0.1000000014901161,1.029999971389771,0,0,0,0,0,0,0,0,0
3025,384438381473413,-0.03995594009757042,0.005252573639154434,-0.2522339522838593,0.9668267369270325,0,0,0,0,0,0,0,0,0,-0.09000000357627869,-0.449999988079071,-0.02999999932944775,0,0,0,0,0,0,0,0,0,0.01999999955296516,-0.1000000014901161,1.149999976158142,0,0,0,0,0,0,0,0,0
3026,384438405922247,-0.04121466726064682,0.0004178900271654129,-0.2524179816246033,0.9667400717735291,0,0,0,0,0,0,0,0,0,0.1400000005960464,-0.1700000017881393,-0.02999999932944775,0,0,0,0,0,0,0,0,0,-0.02999999932944775,-0.07000000029802322,1.120000004768372,0,0,0,0,0,0,0,0,0
3027,384438430045458,-0.03995594009757042,0.005252573639154434,-0.2522339522838593,0.9668267369270325,0,0,0,0,0,0,0,0,0,0.07999999821186066,0.1299999952316284,0.119999997317791,0,0,0,0,0,0,0,0,0,-0.03999999910593033,-0.09000000357627869,1.029999971389771,0,0,0,0,0,0,0,0,0
